acceleration_x,acceleration_y,acceleration_z,gyro_x,gyro_y,gyro_z,activity
0.265,-0.7814,-0.0076,-0.059,0.0325,-29.296,0
0.6722,-11.233,-0.2344,-0.1757,0.0208,0.1269,0
0.4399,-14.817,0.0722,-0.9105,0.1063,-24.367,0
0.3031,-0.8125,0.0888,0.1199,-0.4099,-29.336,0
0.4814,-0.9312,0.0359,0.0527,0.4379,24.922,0
0.4044,-0.8056,-0.0956,0.6925,-0.2179,25.75,0
0.632,-11.29,-0.2982,0.0548,-0.1896,0.4473,0
0.667,-13.503,-0.088,-0.8094,-0.7938,-14.348,0
0.2704,-0.8633,0.1293,-0.4173,-0.1904,-26.759,0
0.469,-10.74,0.0219,0.0388,11.491,16.982,0
0.2985,-0.7172,-0.0693,0.2326,0.4321,21.009,0
0.6364,-10.452,-0.24,0.1163,-0.1033,10.822,0
0.5683,-12.486,-0.131,-0.4556,-0.5281,-12.407,0
0.2911,-0.7748,0.0163,-0.2345,-0.0148,-25.884,0
0.4477,-11.574,-0.0172,-0.1081,0.4016,0.67,0
0.2424,-0.7421,-0.0549,0.5714,-0.0506,21.356,0
0.6028,-10.966,-0.3046,0.1674,-0.5065,10.156,0
0.4852,-13.397,-0.0763,-0.8579,0.0096,-14.015,0
0.3017,-0.8366,0.0718,-0.2701,-0.4678,-27.01,0
0.4082,-10.859,-0.0375,0.0848,-0.105,0.287,0
0.372,-0.819,-0.2379,0.3006,0.1531,26.873,0
0.6363,-0.7532,-0.2972,-0.0726,-0.1945,14.53,0
0.709,-11.893,-0.2303,-0.1418,-14.683,-12.643,0
0.3275,-0.7846,-0.0344,0.0436,-0.3678,-29.826,0
0.2957,-0.9224,-0.0462,0.1208,0.0853,-0.2949,0
0.5468,-12.653,-0.2362,0.1492,0.5586,35.731,0
0.5656,-0.8049,-0.1815,0.4349,-0.0852,14.384,0
0.7335,-13.042,-0.2887,-0.4351,0.0151,-11.675,0
0.2843,-0.9344,-0.0459,-0.3433,-0.1396,-31.056,0
0.2854,-0.9109,0.0746,0.079,0.0688,-15.5,0
0.5291,-12.39,-0.1573,0.3893,-0.2878,30.852,0
0.5319,-0.7638,-0.1285,0.3973,-0.0524,20.416,0
0.5509,-14.469,-0.1684,-0.159,0.5247,-0.2822,0
0.4053,-0.7735,-0.0511,-0.0841,-0.5589,-22.833,0
0.2938,-0.9424,0.0928,-0.5436,0.4212,-11.527,0
0.514,-10.203,-0.2959,0.7219,-0.1907,16.697,0
0.4652,-0.6219,-0.1181,0.5532,0.4083,16.534,0
0.5604,-12.123,-0.2765,-0.395,0.0046,0.5489,0
0.5762,-11.338,-0.0781,-0.2823,-10.751,-16.04,0
0.2365,-0.8592,0.1061,-0.353,0.3114,-22.969,0
0.4459,-11.958,0.0135,0.3472,0.3493,16.18,0
0.3306,-0.7377,-0.0852,0.5862,-0.3914,20.878,0
0.6213,-11.723,-0.2599,0.0188,-0.2731,0.7516,0
0.4872,-11.931,-0.0351,-0.5722,-0.5391,-14.604,0
0.2804,-0.8719,0.075,-0.3699,0.1381,-23.609,0
0.4056,-12.032,0.0102,-0.2242,0.4722,0.8533,0
0.3337,-0.6742,-0.0606,-0.6249,16.331,20.391,0
0.6582,-10.35,-0.1183,-0.6174,0.9292,16.138,0
0.7001,-11.561,-0.1305,0.1899,-0.0869,-0.8852,0
0.3547,-0.8853,-0.0107,0.3715,-0.9418,-27.084,0
0.3895,-0.9959,0.0459,-0.489,0.619,0.5679,0
0.3238,-0.877,-0.0594,0.3748,-0.8984,25.428,0
0.662,-0.7942,-0.2785,0.2064,-0.3973,13.19,0
0.6929,-11.423,-0.1246,-0.295,-0.7894,-10.99,0
0.2491,-0.8098,-0.0453,-0.2112,-0.0623,-28.868,0
0.3197,-0.8978,0.0555,-0.1366,0.1722,-0.8806,0
0.5569,-14.246,-0.1935,0.3919,-11.598,35.336,0
0.3874,-0.6626,-0.1261,0.5992,0.3975,0.882,0
0.5634,-14.413,-0.2124,-0.6606,0.8258,-0.2538,0
0.3344,-0.9437,-0.0687,-0.6882,-0.1209,-25.22,0
0.2797,-0.8473,0.0257,-0.2574,-0.2347,-18.959,0
0.5678,-0.8802,-0.2326,0.5755,0.231,28.897,0
0.5353,-0.8067,-0.1952,0.1344,10.349,20.42,0
0.594,-10.874,-0.2786,-0.1817,0.1701,-0.0454,0
0.6107,-13.625,-0.0638,-0.5926,-0.6533,-17.893,0
0.3213,-0.8954,0.0174,0.049,-0.2087,-28.416,0
0.4545,-10.454,0.0062,-0.0272,0.8734,27.89,0
0.2549,-0.8386,-0.0392,0.2216,0.6141,17.357,0
0.6122,-0.9528,-0.2697,0.1331,-0.5244,0.6437,0
0.6089,-12.991,-0.1467,-0.3103,-0.7567,-15.889,0
0.3163,-0.8134,0.0059,-0.1059,-0.3358,-25.507,0
0.4213,-10.8,-0.006,-0.3115,0.7397,11.321,0
0.2652,-0.7821,-0.0957,0.4252,-0.3947,22.478,0
0.5738,-10.088,-0.2986,0.368,0.268,0.6341,0
0.5505,-12.154,-0.1757,-0.6,0.4061,-11.604,0
0.2887,-0.7713,0.0014,-0.3777,-0.2716,-24.449,0
0.3945,-0.9849,0.0078,-0.2744,0.6706,0.2757,0
0.5972,-11.432,-0.2235,0.4744,-11.092,27.531,0
0.4722,-0.772,-0.2505,0.2067,0.4913,0.7946,0
0.5853,-12.346,-0.1981,-0.5655,0.1169,-0.8977,0
0.2757,-0.8391,-0.0072,-0.3355,-0.3098,-26.54,0
0.3073,-0.9275,0.0401,-0.1457,0.1557,-0.7875,0
0.5658,-11.213,-0.2999,0.3816,-0.7291,31.841,0
0.4005,-0.7692,-0.1453,0.6868,-0.18,10.397,0
0.5844,-14.608,-0.2223,-0.6575,0.5828,-0.4737,0
0.2566,-0.8068,-0.042,-0.7274,-0.0563,-20.685,0
0.304,-10.526,0.0464,-0.4294,0.2014,-14.583,0
0.4465,-10.84,-0.1606,0.4681,0.3918,22.522,0
0.3939,-0.6838,-0.1126,0.5759,-0.0559,14.791,0
0.5429,-11.746,-0.2511,-0.1469,0.096,0.1659,0
0.3388,-10.269,-0.0469,-0.6239,0.1507,-22.914,0
0.313,-0.8987,0.03,-0.139,-0.3489,-20.221,0
0.4655,-0.9433,-0.1292,0.0525,0.8692,26.627,0
0.3586,-0.6902,-0.1185,0.7068,0.121,16.036,0
0.5211,-11.707,-0.2329,-0.1162,0.2544,0.1954,0
0.2969,-11.104,-0.0124,-0.779,-11.317,-16.004,0
0.3363,-0.836,0.0099,-0.0867,-0.3271,-28.469,0
0.3964,-0.9407,0.0009,0.1145,12.034,24.547,0
0.2734,-0.7188,-0.0972,0.4533,0.7148,17.676,0
0.6459,-10.737,-0.287,0.0272,-0.3601,10.471,0
0.5694,-12.458,-0.1208,-0.4814,-0.8431,-18.555,0
0.3199,-0.8176,0.0217,-0.1003,-0.4282,-29.279,0
0.4304,-10.449,0.0086,-0.2193,0.5762,13.037,0
0.2451,-0.7513,-0.0711,0.4032,-0.0894,23.071,0
0.619,-10.499,-0.2608,0.213,0.0767,11.665,0
0.5926,-12.836,-0.125,-0.4594,-0.5626,-15.641,0
0.3374,-0.8574,0.022,-0.0574,-0.1738,-31.476,0
0.3904,-10.966,0.0865,-0.2943,10.793,11.683,0
0.4515,-11.358,0.0536,-0.1098,0.7647,16.656,0
0.546,-13.575,-0.1702,0.0282,-0.677,33.69,0
0.5125,-0.7924,-0.1582,0.5775,0.5693,15.485,0
0.618,-10.541,-0.2813,-0.3952,0.2874,-11.419,0
0.3146,-0.8448,-0.2048,-0.4367,-0.2532,-30.088,0
0.2907,-0.916,0.0844,-0.195,0.0612,-12.387,0
0.5521,-11.966,-0.1881,0.4755,-0.4405,32.137,0
0.4494,-0.7836,-0.0926,0.2773,0.9572,17.31,0
0.6712,-14.076,-0.2433,-0.3272,0.3408,-0.3338,0
0.3771,-0.8419,-0.0954,-0.39,-0.7119,-22.131,0
0.2652,-0.8868,0.0612,-0.3929,0.2178,-15.815,0
0.4664,-0.9583,-0.209,0.6097,0.0795,19.947,0
0.3983,-0.6054,-0.1031,0.4364,0.2436,18.102,0
0.5717,-11.796,-0.2747,-0.2244,0.1854,0.0684,0
0.4888,-10.419,-0.0523,-0.4952,-0.2235,-18.617,0
0.2574,-0.8144,0.0614,-0.2815,-0.1088,-19.101,0
0.4383,-12.338,-0.0071,0.2464,0.7006,18.13,0
0.2924,-0.6761,-0.0946,0.6,-0.0807,15.778,0
0.6276,-12.24,-0.2558,-0.1951,0.3076,10.727,0
0.5259,-12.524,-0.1105,-0.4858,-0.167,-18.457,0
0.3091,-0.8166,0.0283,-0.486,-0.4276,-21.202,0
0.4689,-13.066,0.0249,-0.0127,0.7981,16.438,0
0.1589,-0.6739,-0.0822,0.0035,16.908,13.058,0
0.688,-10.351,-0.2452,0.0222,-10.059,13.073,0
0.6005,-14.198,-0.0493,-0.3832,-0.7527,-11.902,0
0.334,-0.698,-0.0091,0.3287,-0.8099,-28.684,0
0.3832,-10.722,0.0366,-0.5351,15.721,15.499,0
0.2838,-0.9062,0.0382,0.3371,-0.5764,16.389,0
0.6306,-10.355,-0.2353,0.1983,0.0396,0.8317,0
0.5268,-13.036,-0.114,-0.509,-0.0389,-12.81,0
0.3323,-0.7253,0.0268,0.0822,-0.7226,-23.49,0
0.3666,-10.244,0.0266,-0.4267,0.8955,10.966,0
0.3373,-11.735,0.0059,0.3822,-0.5113,16.313,0
0.4869,-0.6978,-0.1337,0.2063,0.2438,10.906,0
0.5617,-13.276,-0.1674,-0.513,0.351,-10.634,0
0.2571,-0.6437,-0.0247,-0.2874,0.1529,-25.594,0
0.3857,-0.8789,-0.0129,-0.359,0.3438,0.3601,0
0.5174,-11.699,-0.1549,0.4155,-0.67,21.305,0
0.4649,-0.707,-0.1444,0.3172,0.2781,0.8512,0
0.5341,-13.678,-0.1017,-0.2392,-0.3451,-0.8629,0
0.2995,-0.7166,0.0036,-0.1298,-10.186,-20.083,0
0.4187,-11.376,-0.042,-0.4695,0.846,-0.1603,0
0.3443,-0.7934,-0.0906,0.5763,-0.546,20.638,0
0.3963,-0.7241,-0.115,0.4406,0.4211,11.941,0
0.606,-10.123,-0.2522,-0.3953,0.2056,-0.5066,0
0.2739,-0.7096,-0.0315,-0.4307,0.1261,-24.462,0
0.3608,-10.997,0.0289,-0.253,0.3382,-0.5649,0
0.4662,-10.653,-0.1686,0.2441,-0.4343,23.291,0
0.3881,-0.6858,-0.0778,0.2584,0.6793,11.454,0
0.4995,-12.055,-0.1895,-0.3182,0.4662,0.0246,0
0.3262,-0.8331,-0.0828,-0.2814,0.023,-24.213,0
0.3158,-0.9102,0.0412,-0.1639,-0.2908,-14.809,0
0.4525,-10.737,-0.167,0.2438,0.3059,23.907,0
0.4001,-0.6247,-0.0973,0.4054,0.4231,13.103,0
0.2536,-0.7218,-0.046,-0.1791,0.0691,-28.528,0
0.3171,-0.9279,0.0466,-0.1915,0.6863,-0.7197,0
0.5144,-11.808,-0.0947,0.1954,-0.7586,34.564,0
0.6302,-10.027,-0.2544,0.4635,0.3526,13.424,0
0.5315,-13.59,-0.1005,-0.636,-0.4082,-14.25,0
0.3078,-0.8247,-0.0371,-0.419,0.6718,-34.323,0
0.2961,-0.8109,0.0529,0.1695,0.3035,-0.61,0
0.6216,-12.921,-0.183,0.3646,-0.8434,45.253,0
0.4669,-0.8997,-0.1299,0.6902,10.346,10.067,0
0.5483,-10.437,-0.2464,-0.5561,0.3751,-10.836,0
0.2883,-0.7494,-0.07,-0.5835,0.2541,-27.221,0
0.3103,-0.9474,0.0918,-0.3342,0.3749,-0.9615,0
0.5737,-12.309,-0.1642,0.6664,-10.689,30.6,0
0.3922,-0.804,-0.1033,0.4671,0.8675,14.024,0
0.6183,-10.988,-0.2312,-0.5011,-0.0069,-0.662,0
0.3179,-0.7208,-0.0448,-0.2314,0.0269,-28.967,0
0.3401,-0.9129,0.0609,-0.4286,0.5847,-0.8477,0
0.5484,-11.66,-0.1173,0.3994,-0.8414,32.145,0
0.4537,-0.8362,-0.2068,0.7727,0.1396,11.252,0
0.5727,-12.256,-0.2337,-0.9033,0.5141,-0.4572,0
0.2616,-0.7633,-0.0727,-0.5846,0.2503,-27.332,0
0.3056,-0.8865,0.0855,-0.3585,0.1818,-13.597,0
0.5986,-13.343,-0.1837,0.1472,-0.481,35.921,0
0.4264,-0.7467,-0.1037,0.8588,-0.0226,14.567,0
0.6081,-14.422,-0.2209,-0.6622,0.2625,-0.3923,0
0.3269,-0.8763,-0.117,-0.6601,0.3963,-28.025,0
0.2867,-0.9105,0.0883,-0.2444,-0.238,-20.077,0
0.5973,-11.717,-0.2185,0.2394,0.4566,36.139,0
0.4086,-0.7668,-0.0785,0.6984,0.2264,14.65,0
0.5778,-12.404,-0.2415,-0.2482,0.3329,-0.0082,0
0.3584,-0.9358,-0.0663,-0.8162,0.1683,-22.499,0
0.3073,-0.9256,0.0756,-0.1117,-0.1397,-20.681,0
0.5509,-0.9719,-0.2229,0.3479,0.5021,28.032,0
0.2878,-0.7348,-0.099,0.5608,0.2959,13.805,0
0.6972,-10.896,-0.2856,-0.0637,-11.547,0.518,0
0.4141,-11.618,-0.0169,-0.8328,0.6143,-22.212,0
0.29,-0.8034,0.0464,0.063,-0.7305,-24.112,0
0.5698,-0.998,-0.1377,-0.0621,0.8144,30.975,0
0.3225,-0.6746,-0.1022,0.8993,-0.3752,14.425,0
0.606,-10.898,-0.299,-0.0136,0.1052,0.4499,0
0.6016,-12.367,-0.074,-0.7873,-0.2988,-17.221,0
0.3298,-0.7938,0.0464,-0.1973,0.1652,-26.224,0
0.5016,-11.101,0.059,-0.1059,0.585,21.587,0
0.3104,-0.7856,-0.0498,0.412,0.3379,16.784,0
0.6541,-0.9303,-0.231,0.0879,-0.6524,0.8965,0
0.5684,-12.506,-0.1003,-0.5448,-0.4106,-16.335,0
0.3284,-0.7616,0.0295,-0.1484,-0.3465,-26.245,0
0.4109,-0.9884,0.0728,-0.3152,0.8415,17.632,0
0.3466,-10.184,0.0288,0.4789,-0.6232,18.187,0
0.6113,-0.8124,-0.2345,0.212,0.3684,10.388,0
0.5513,-11.746,-0.1753,-0.6633,-0.5685,-12.377,0
0.3668,-0.7101,0.0232,-0.1469,0.2517,-28.709,0
0.4173,-10.021,0.0348,-0.2592,0.3906,0.4778,0
0.3314,-10.075,-0.0322,0.5693,-10.897,25.327,0
0.6653,-11.37,-0.2516,-0.1598,0.1744,0.1806,0
0.4899,-12.086,0.0166,-0.6633,-0.6494,-17.022,0
0.3092,-0.8176,0.0746,-0.11,-0.383,-26.218,0
0.4789,-11.091,0.0271,0.0348,0.5126,23.429,0
0.3949,-0.7153,-0.0843,0.5852,-0.5093,23.504,0
0.6788,-11.107,-0.2374,-0.1203,-0.1473,0.6485,0
0.4995,-11.311,-0.0235,-0.3738,-0.0901,-21.077,0
0.277,-0.8528,0.0961,-0.225,-0.0603,-23.144,0
0.4535,-0.9252,-0.037,0.1067,0.2942,19.403,0
0.3601,-0.6574,-0.1068,0.5694,-0.0769,19.158,0
0.5497,-11.401,-0.2169,-0.1072,0.0901,0.4734,0
0.5429,-11.964,-0.0033,-0.5632,-10.052,-12.434,0
0.3093,-0.7992,0.1109,-0.2708,-0.3486,-23.478,0
0.4548,-11.535,0.0334,-0.0542,0.7975,15.899,0
0.3093,-0.7663,-0.0519,0.5062,-0.0695,19.724,0
0.5912,-10.083,-0.2088,0.1226,0.1496,10.044,0
0.6071,-13.447,-0.0805,-0.6091,-0.618,-11.954,0
0.3548,-0.7767,0.0122,0.001,-0.3999,-28.29,0
0.4499,-10.593,0.0144,-0.4018,0.4666,0.7395,0
0.357,-0.8565,-0.0883,0.8757,-0.6845,21.371,0
0.627,-10.177,-0.3135,0.5513,0.4483,0.9964,0
0.4911,-13.223,-0.1204,-0.8533,0.9016,-16.547,0
0.308,-0.7352,-0.0315,-0.1625,-0.1706,-25.231,0
0.3176,-0.8246,0.0728,-0.2595,0.5594,-0.0093,0
0.526,-13.098,-0.1753,0.3309,-0.9608,27.291,0
0.535,-0.7031,-0.1778,0.1304,0.3319,11.237,0
0.5934,-14.911,-0.1219,-0.6453,0.8851,-11.157,0
0.3804,-0.8353,-0.0049,0.087,-0.8111,-22.458,0
0.3101,-0.8957,0.0087,-0.0417,-0.1267,-0.8014,0
0.5431,-12.388,-0.2278,-0.1709,0.2363,30.117,0
0.428,-0.6476,-0.11,0.097,0.4901,11.8,0
0.6526,-13.901,-0.1993,-0.3156,0.3755,-0.445,0
0.3271,-0.7684,-0.0754,0.2842,-0.6777,-22.425,0
0.302,-0.8264,0.0242,-0.1106,0.1495,-14.297,0
0.574,-10.933,-0.1326,0.0352,-0.1197,30.666,0
0.3529,-0.6248,-0.0919,0.3287,0.6674,11.381,0
0.5313,-11.324,-0.2083,-0.2812,0.0773,0.2129,0
0.3667,-0.9778,-0.0574,-0.324,-0.4104,-20.694,0
0.2524,-0.7704,0.0374,-0.1589,0.0168,-25.196,0
0.5594,-0.9576,-0.2063,0.0843,0.5387,28.212,0
0.3835,-0.7269,-0.1282,0.2447,0.6811,15.318,0
0.6656,-0.9436,-0.2458,-0.208,-0.4168,0.4051,0
0.5839,-14.289,-0.0896,-0.2602,-0.3818,-20.686,0
0.306,-0.772,0.0284,-0.0297,-0.7028,-25.507,0
0.475,-10.184,-0.0003,-0.2567,0.9796,26.059,0
0.3231,-0.7806,-0.1376,0.416,0.0675,17.117,0
0.638,-0.7886,-0.2275,-0.0898,-0.2575,0.7814,0
0.5261,-12.11,-0.0912,-0.0421,-0.5205,-18.038,0
0.2926,-0.7429,0.0321,0.1268,-0.7239,-23.948,0
0.378,-10.026,0.0157,-0.239,0.0524,0.8933,0
0.284,-0.8118,-0.1059,0.7212,-0.708,19.102,0
0.5578,-0.7604,-0.2004,0.3443,0.2052,0.9096,0
0.6333,-13.6,-0.1536,-0.4137,0.1326,-13.459,0
0.3307,-0.8636,0.0035,0.1718,-0.5647,-31.815,0
0.4262,-0.9238,0.0272,-0.395,0.7432,0.5612,0
0.6778,-12.389,-0.1059,0.3041,-0.7998,34.31,0
0.4998,-0.734,-0.0957,0.3865,0.3212,12.957,0
0.629,-11.496,-0.2043,-0.5815,-0.1978,-14.975,0
0.3399,-0.7481,-0.0185,-0.2151,-0.4761,-30.078,0
0.3215,-0.8466,0.0322,-0.3628,0.0408,-0.6074,0
0.447,-10.793,-0.0691,0.7212,-0.3257,31.636,0
0.5174,-0.8549,-0.2681,0.7243,-0.0863,13.982,0
0.7186,-12.654,-0.2323,-0.7292,0.3123,-0.7082,0
0.2688,-0.8077,-0.0604,-0.4393,-0.0961,-29.641,0
0.2547,-10.194,0.1248,-0.4085,0.7982,-11.143,0
0.5223,-10.453,-0.1561,0.7304,-0.7441,27.497,0
0.5398,-0.8313,-0.2716,0.3845,0.0879,19.835,0
0.5446,-11.262,-0.2446,-0.4308,-0.1202,-0.9359,0
0.2865,-0.9115,-0.0219,-0.6912,0.0317,-25.845,0
0.3105,-0.9978,0.0666,-0.0944,0.1833,-16.64,0
0.5193,-10.762,-0.1831,0.3164,0.1502,30.719,0
0.4518,-0.727,-0.1145,0.3501,0.2591,18.159,0
0.6119,-10.515,-0.2047,0.1836,-0.3366,-0.263,0
0.3218,-0.9857,0.0114,-0.9756,-0.3174,-22.28,0
0.337,-0.9111,0.0602,-0.5968,0.5053,-20.847,0
0.443,-10.223,-0.1086,0.8515,-0.034,21.731,0
0.4171,-0.6856,-0.1368,11.747,-0.8109,18.978,0
0.5283,-11.37,-0.2855,-0.1246,-12.859,0.5524,0
0.285,-0.9752,-0.0248,-14.119,-0.8882,-19.32,0
0.3165,-0.902,0.1702,-11.64,0.0385,-20.103,0
0.5085,-0.8028,-0.227,11.254,0.0152,0.9413,0
0.3716,-0.7429,-0.1764,11.721,0.8563,19.53,0
0.6324,-10.884,-0.2029,0.2663,-0.737,15.198,0
0.5211,-11.66,-0.0669,-0.4915,-14.886,-15.622,0
0.3387,-0.8848,0.1047,-0.6261,-0.5139,-22.408,0
0.4614,-11.464,-0.0183,0.2165,0.2491,0.6734,0
0.2257,-0.7397,-0.0208,10.513,-0.4419,14.202,0
0.5931,-0.9641,-0.232,0.5439,0.5475,14.513,0
0.5855,-11.462,-0.1088,-0.4729,-16.018,-0.5724,0
0.2847,-0.7593,-0.0114,-0.7653,0.8282,-27.699,0
0.3549,-10.565,0.0652,-0.2562,0.0045,-0.3285,0
0.4683,-11.195,-0.142,0.743,-0.3873,21.826,0
0.5855,-0.8095,-0.2669,0.2423,0.6602,13.651,0
0.6072,-10.441,-0.2508,-0.2173,-0.8004,-0.3941,0
0.3039,-0.7004,-0.0002,-0.5906,0.6662,-27.873,0
0.3492,-10.846,0.0662,-0.3647,0.1245,-0.399,0
0.4254,-11.138,-0.1141,0.5225,-0.8127,22.781,0
0.4224,-0.7515,-0.1247,0.4525,0.6359,12.39,0
0.5758,-11.695,-0.2878,-0.1438,0.1753,-0.1873,0
0.22,-0.7924,-0.0359,-0.679,-0.0047,-25.467,0
0.3162,-0.9621,0.0752,-0.4047,-0.1915,-14.465,0
0.4528,-0.913,-0.0851,0.3986,-0.5418,28.579,0
0.3537,-0.6741,-0.1034,0.5651,0.383,13.884,0
0.5868,-12.022,-0.2372,-0.1266,0.3999,0.3209,0
0.4449,-12.787,0.0326,-0.7765,-0.4562,-24.304,0
0.3313,-0.8896,0.0679,-0.1911,-0.4565,-25.709,0
0.4688,-10.241,-0.0006,0.2922,0.6663,27.027,0
0.3356,-0.6784,-0.0971,0.3719,0.8811,16.357,0
0.616,-15.303,-0.2141,-0.4052,0.5935,-0.6857,0
0.2769,-10.433,-0.0407,-0.9354,-0.5621,-28.474,0
0.3541,-0.8344,0.0368,-0.0856,-0.5181,-19.328,0
0.6245,-10.092,-0.2337,0.3699,0.4656,35.839,0
0.3982,-0.7042,-0.1237,0.5515,0.3504,16.079,0
0.5593,-12.322,-0.2468,-0.0872,0.1905,0.1505,0
0.4733,-12.702,-0.0225,-0.72,-0.3134,-23.748,0
0.3046,-0.8358,0.0197,-0.1155,-0.5295,-24.091,0
0.4889,-10.72,-0.084,0.0824,0.7986,28.542,0
0.3029,-0.6976,-0.0825,0.4251,0.672,17.969,0
0.6187,-12.203,-0.3073,0.0759,-0.2289,0.2673,0
0.3927,-11.884,-0.0297,-0.6816,-13.419,-16.107,0
0.3277,-0.8311,0.0022,-0.348,0.0944,-26.37,0
0.3999,-0.9463,-0.0469,0.0607,0.5298,14.213,0
0.3277,-0.7298,-0.1077,0.528,-0.0991,22.371,0
0.571,-11.304,-0.2989,0.1695,0.1035,10.256,0
0.4882,-12.1,-0.084,-0.6158,-0.7365,-19.146,0
0.3608,-0.8436,0.0154,-0.2776,-0.0614,-27.183,0
0.3989,-10.636,0.0402,0.0106,0.4997,12.213,0
0.3332,-0.9214,-0.0615,0.7367,-0.3097,17.799,0
0.4984,-0.9477,-0.2176,0.3644,0.2709,11.514,0
0.522,-10.431,-0.2399,-0.4743,-0.2237,-11.42,0
0.3132,-0.6933,-0.0312,-0.1617,-0.3221,-23.276,0
0.3576,-11.281,0.0336,-0.3517,0.2105,-0.2272,0
0.4329,-11.355,-0.0869,0.2759,-0.1337,20.669,0
0.4535,-0.7109,-0.1707,0.1671,0.2451,14.284,0
0.5764,-11.615,-0.3584,-0.3541,-0.6246,-0.5184,0
0.2917,-0.6769,-0.066,-0.6155,0.4735,-22.089,0
0.3144,-10.947,-0.0215,-0.1396,0.0389,-0.8548,0
0.4263,-10.388,-0.1677,0.4698,-0.2635,20.813,0
0.4188,-0.827,-0.1165,0.1221,10.776,12.727,0
0.5729,-12.317,-0.2519,-0.1443,0.0278,0.2078,0
0.3404,-0.6807,-0.0863,-0.4991,0.0893,-19.509,0
0.3128,-11.473,0.0253,-0.6018,0.2641,-13.059,0
0.4361,-11.407,-0.1643,0.6118,-0.5618,17.478,0
0.3735,-0.645,-0.1124,0.4287,0.5495,10.201,0
0.5251,-13.182,-0.2356,-0.103,-0.0937,0.7595,0
0.2923,-0.8345,-0.0673,-0.5445,0.3344,-22.024,0
0.3277,-0.8111,0.0291,-0.221,-0.5827,-14.962,0
0.4462,-11.15,-0.1081,0.2084,-0.0442,21.31,0
0.274,-0.5791,-0.0944,0.492,0.2787,0.6557,0
0.5038,-11.655,-0.224,-0.1518,0.0798,0.8897,0
0.3859,-10.099,-0.0275,-0.7253,-0.7326,-11.953,0
0.3564,-0.8893,0.0112,0.0209,-0.4725,-24.308,0
0.4382,-10.498,-0.109,-0.0188,0.5479,20.554,0
0.275,-0.5968,-0.1001,0.5466,0.2816,11.25,0
0.5383,-12.726,-0.2304,0.0465,0.3084,10.019,0
0.4072,-12.403,-0.0022,-0.7548,-16.075,-10.876,0
0.3714,-0.804,0.011,-0.5705,0.3875,-25.838,0
0.4244,-12.109,-0.0137,0.0313,0.4636,12.877,0
0.2253,-0.696,-0.0815,0.7829,-0.5261,13.361,0
0.6225,-11.17,-0.3121,0.4882,0.2342,10.674,0
0.5516,-12.216,-0.1619,-0.4562,-0.1928,-11.151,0
0.2677,-0.7471,0.0136,-0.6087,-0.2823,-19.406,0
0.5943,-12.638,-0.1086,-0.8264,-0.8128,-18.137,0
0.2833,-0.9328,0.0478,-0.7424,0.3869,-29.918,0
0.4411,-0.914,-0.0316,0.2779,0.2431,23.214,0
0.2971,-0.6829,-0.1402,0.8385,-0.6104,19.295,0
0.7097,-11.566,-0.3781,0.2966,-0.0863,0.7873,0
0.5403,-14.307,-0.0359,-0.8374,-0.7762,-16.704,0
0.3846,-0.8189,0.0141,-0.1751,-0.2585,-29.437,0
0.471,-11.856,0.0354,-0.1723,0.7361,16.525,0
0.2518,-0.7672,-0.0697,0.3746,0.0819,20.066,0
0.6716,-10.452,-0.3143,0.2851,0.0254,12.805,0
0.6047,-12.847,-0.1428,-0.4336,-0.4299,-16.794,0
0.3339,-0.8006,-0.0202,0.1292,-0.3733,-32.615,0
0.3429,-0.881,0.0131,-0.1695,0.3839,0.5007,0
0.4845,-12.089,-0.1756,0.4324,-0.3668,29.715,0
0.5121,-0.743,-0.1922,0.2994,13.971,11.349,0
0.5712,-0.9719,-0.2568,-0.4372,0.5613,-10.171,0
0.3163,-0.7931,-0.031,-0.2244,-0.0154,-29.823,0
0.3411,-0.9162,0.0511,-0.2681,-0.0709,-0.8561,0
0.561,-13.257,-0.2037,0.2191,-0.4518,36.658,0
0.4413,-0.762,-0.113,0.5956,0.7867,0.862,0
0.4945,-13.484,-0.1783,-0.1627,0.206,-0.1527,0
0.2891,-0.8581,-0.081,-0.4405,-0.0799,-26.239,0
0.307,-0.9037,0.0289,-0.1864,-0.3989,-15.068,0
0.4362,-0.8953,-0.1105,0.2942,0.5659,28.598,0
0.2813,-0.6785,-0.0825,0.7714,0.2734,10.106,0
0.5857,-12.316,-0.2917,-0.1372,-0.1247,0.5759,0
0.4039,-11.482,-0.0182,-0.8147,-0.3499,-19.736,0
0.3275,-0.8342,0.0535,-0.2446,-0.6054,-21.684,0
0.4749,-10.988,0.0093,0.0996,0.9803,21.399,0
0.2779,-0.7089,-0.0701,0.7221,-0.2663,17.089,0
0.5595,-10.804,-0.2356,0.1543,0.015,0.9904,0
0.5339,-12.329,-0.1176,-0.5149,0.3317,-14.911,0
0.3824,-0.7146,-0.0081,0.1937,-0.846,-27.034,0
0.3921,-10.998,0.0118,-0.1772,0.4675,0.9996,0
0.3231,-0.8291,-0.0338,0.3036,0.6795,17.462,0
0.442,-0.8842,-0.1065,0.1696,0.4693,17.454,0
0.5914,-11.003,-0.1851,-0.1069,-0.5757,-14.59,0
0.2918,-0.7856,-0.0579,-0.4235,-0.3827,-26.685,0
0.2961,-10.46,0.0645,-0.329,0.6594,-0.918,0
0.5033,-11.373,-0.1715,0.6074,-0.756,25.73,0
0.628,-0.6542,-0.1076,0.2977,-0.2117,16.435,0
0.5905,-14.769,-0.1751,-0.3593,0.2335,-0.4018,0
0.2805,-0.8244,-0.0274,-0.3888,-0.4188,-23.099,0
0.2813,-0.9528,0.0874,-0.4264,0.2219,-11.967,0
0.5272,-12.016,-0.2239,0.6163,-0.9025,23.217,0
0.4043,-0.6805,-0.0598,0.3971,0.7792,12.834,0
0.7692,-16.411,-0.1809,-0.4578,0.217,0.3494,0
0.412,-0.7707,-0.0519,-0.5111,-0.3469,-21.132,0
0.2831,-0.973,0.1291,-0.4957,0.1717,-14.431,0
0.4962,-11.529,-0.105,0.7106,0.0052,15.129,0
0.374,-0.6079,-0.1259,0.6267,0.4576,14.836,0
0.5357,-12.654,-0.2729,-0.1978,-0.274,0.9461,0
0.4875,-11.446,-0.0221,-0.8355,-0.3522,-16.293,0
0.3497,-0.8312,0.0516,-0.3096,-0.1251,-19.345,0
0.4062,-0.9538,0.0137,-0.0898,0.3199,13.13,0
0.3605,-10.376,-0.0565,0.3025,-0.2791,29.984,0
0.4334,-0.855,-0.1253,0.3475,10.589,10.768,0
0.569,-11.3,-0.2944,-0.5425,-0.1109,-15.344,0
0.2792,-0.7692,-0.0041,-0.6458,0.0685,-26.062,0
0.315,-0.9834,0.0509,-0.0273,0.3217,-0.6352,0
0.5082,-12.609,-0.1088,0.1151,-0.1298,32.727,0
0.4234,-0.7448,-0.1552,0.3518,0.8952,0.9606,0
0.615,-13.499,-0.2077,-0.3852,0.2493,-0.407,0
0.2857,-0.8812,-0.034,-0.208,0.1621,-28.444,0
0.3114,-0.8837,0.0631,-0.0914,-0.0656,-0.7866,0
0.5753,-11.945,-0.247,0.4157,-0.6655,29.939,0
0.3927,-0.6869,-0.1037,0.3483,10.203,0.9973,0
0.568,-14.097,-0.2386,-0.2676,0.4358,-0.1373,0
0.2722,-0.8455,-0.0547,-0.549,-0.003,-21.262,0
0.3112,-0.7744,0.04,-0.0801,-0.2723,-15.217,0
0.5096,-10.704,-0.0688,0.0175,0.1907,28.465,0
0.3152,-0.6502,-0.0815,0.4063,0.3793,10.435,0
0.6023,-11.568,-0.2251,-0.1341,0.4403,0.4755,0
0.4586,-11.883,-0.0642,-0.5679,-0.1798,-17.099,0
0.3281,-0.7967,0.0054,-0.1539,-0.8782,-20.358,0
0.4579,-12.405,0.0012,-0.103,0.8752,19.991,0
0.2414,-0.6318,-0.083,0.7066,0.0938,11.105,0
0.5627,-10.591,-0.2401,0.0093,0.1223,10.444,0
0.5376,-12.574,-0.0707,-0.5856,-0.1486,-13.107,0
0.3306,-0.7657,0.0264,-0.1246,-0.5652,-21.206,0
0.4452,-12.689,0.0238,-0.3088,0.8233,10.204,0
0.272,-0.8488,-0.0087,0.2584,-0.1268,15.592,0
0.4971,-0.7955,-0.1947,0.1813,-0.0225,10.334,0
0.6213,-0.9928,-0.2719,-0.1335,-0.1495,-0.6746,0
0.3239,-0.744,-0.0326,-0.2619,0.0951,-24.614,0
0.3565,-11.359,0.0479,-0.2493,0.469,0.0238,0
0.4442,-10.941,-0.1248,0.206,-0.357,20.673,0
0.4447,-0.7917,-0.1396,0.2626,0.5184,12.3,0
0.5783,-11.423,-0.2617,-0.285,0.304,-0.5294,0
0.2484,-0.7245,-0.0358,-0.3219,0.5424,-23.819,0
0.3455,-10.356,0.0264,-0.2085,0.3357,-0.6009,0
0.4577,-11.855,-0.1716,0.1907,-0.5315,23.039,0
0.3512,-0.6716,-0.1189,0.3493,0.4789,0.826,0
0.5364,-12.289,-0.1873,-0.5257,13.906,-0.0174,0
0.3228,-0.9102,-0.027,0.084,-0.6734,-24.761,0
0.2901,-0.9379,0.0492,-0.2869,0.3896,-0.6929,0
0.4893,-10.411,-0.1725,-0.0384,-0.6758,24.918,0
0.3489,-0.5235,-0.0484,-0.0459,12.958,0.8011,0
0.5578,-12.669,-0.2152,-0.0119,0.3591,0.5051,0
0.4165,-11.62,-0.0032,-0.2258,-0.7465,-19.058,0
0.2599,-0.8136,0.0721,-0.0173,-0.3262,-20.213,0
0.4554,-11.397,-0.0208,-0.1209,0.6206,23.364,0
0.3397,-0.6574,-0.116,0.4344,-0.3777,16.116,0
0.5888,-11.443,-0.2067,-0.0521,0.2531,0.9025,0
0.5511,-11.742,-0.121,-0.2232,-0.768,-15.403,0
0.2907,-0.7806,0.0076,-0.0489,0.3929,-25.865,0
0.4357,-10.894,0.0292,-0.2783,-0.145,0.8949,0
0.3551,-0.8578,-0.033,0.4922,-0.1958,18.035,0
0.5731,-12.977,-0.1129,-0.9188,-20.753,-11.197,0
0.3119,-0.8261,-0.0176,-0.7641,0.6178,-27.405,0
0.4322,-0.8904,-0.0054,0.0815,0.825,18.768,0
0.3414,-0.9065,-0.0754,0.3005,15.52,13.57,0
0.5667,-0.8585,-0.1349,0.4116,-0.3843,0.8104,0
0.6399,-0.9098,-0.2783,-0.165,-13.362,-0.5037,0
0.2692,-0.7063,-0.0296,-0.7498,0.5253,-22.233,0
0.3942,-10.519,-0.032,-0.3394,0.7294,0.1755,0
0.3691,-10.775,-0.0829,0.4481,-10.645,22.434,0
0.443,-0.7705,-0.2376,0.5201,0.4692,0.8704,0
0.5022,-14.842,-0.2221,-0.787,0.7726,-0.0705,0
0.2716,-0.8783,-0.1022,-0.7409,-0.0998,-27.519,0
0.3011,-0.9558,0.0111,-0.7938,0.4724,-13.127,0
0.5366,-0.9988,-0.2612,0.7758,-11.724,33.624,0
0.3086,-0.7773,-0.1509,0.8066,10.808,10.336,0
0.4403,-13.113,-0.2983,-0.1621,-0.213,-0.0274,0
0.2643,-10.547,-0.0638,-11.469,-0.0577,-22.592,0
0.3242,-0.8554,-0.0045,-0.5419,0.0372,-23.026,0
0.4943,-0.9116,-0.1324,0.3937,0.6464,33.513,0
0.094,-0.6939,-0.1039,0.3275,21.568,11.593,0
0.58,-11.603,-0.3137,0.3256,-21.254,0.4636,0
0.4915,-11.615,-0.1002,-0.7391,-11.075,-15.129,0
0.3012,-0.8528,-0.0114,-0.551,0.2355,-27.709,0
0.4756,-0.9222,-0.0792,-0.0051,0.853,19.135,0
0.2266,-0.6885,-0.1532,0.7044,-0.3252,20.166,0
0.6174,-10.923,-0.3576,0.3456,-0.2916,0.6541,0
0.5749,-13.196,-0.1376,-0.6401,-0.4783,-13.032,0
0.3208,-0.8392,-0.0114,-0.5898,0.2347,-26.819,0
0.4195,-10.844,-0.0079,-0.1149,0.7883,0.9417,0
0.227,-0.867,-0.0921,0.723,-0.8114,24.589,0
0.5303,-0.8414,-0.3204,0.5193,-0.0605,0.942,0
0.5527,-11.479,-0.2232,-0.6129,0.3663,-12.267,0
0.309,-0.7824,-0.012,-0.3852,-0.2708,-27.899,0
0.3779,-0.8867,-0.0065,-0.2281,0.4626,-0.1827,0
0.4456,-12.587,-0.1127,0.5866,-15.259,29.427,0
0.4749,-0.7468,-0.2379,0.3831,0.5938,0.6294,0
0.6028,-12.218,-0.3383,-0.3509,0.586,0.0137,0
0.291,-0.8221,-0.0726,-0.6658,0.1295,-26.179,0
0.2991,-0.8757,0.0174,-0.4082,0.0908,-12.135,0
0.5286,-12.143,-0.2657,0.728,-0.3699,32.911,0
0.2994,-0.6795,-0.165,0.4977,10.238,0.5549,0
0.5979,-11.538,-0.3517,-0.1552,-0.3152,0.5141,0
0.4751,-12.283,-0.1034,-0.7561,-0.2019,-18.784,0
0.2964,-0.8146,0.004,-0.3773,-0.1852,-20.492,0
0.4835,-11.357,-0.0534,0.3511,0.5284,30.304,0
0.2218,-0.7163,-0.112,0.6834,0.4427,11.2,0
0.461,-0.9465,-0.2923,0.0428,0.1714,0.4167,0
0.5457,-13.315,-0.1174,-0.7662,-0.5275,-17.085,0
0.3389,-0.7595,-0.0016,-0.2037,-0.5425,-24.434,0
0.4367,-11.403,-0.0376,-0.0589,0.7491,19.768,0
0.2524,-0.8555,-0.0542,0.6766,-0.397,14.752,0
0.5509,-0.9286,-0.3052,0.3405,0.3087,0.835,0
0.4266,-10.56,-0.2398,-0.6163,0.0165,-14.722,0
0.3036,-0.7747,-0.0422,-0.6754,0.1403,-24.824,0
0.6007,-11.798,-0.2434,0.3225,0.1479,30.892,0
0.4037,-0.6062,-0.137,0.6937,-0.1817,12.837,0
0.5232,-11.282,-0.2379,-0.1456,0.0802,0.173,0
0.3714,-10.017,-0.0515,-0.9061,0.4346,-21.264,0
0.3024,-0.7872,0.0544,-0.2573,-0.4567,-22.423,0
0.5394,-11.144,-0.1331,0.1621,0.4672,28.537,0
0.2478,-0.7093,-0.0861,0.8421,0.1142,14.305,0
0.5971,-10.97,-0.3046,-0.0537,-0.1897,0.6641,0
0.5186,-11.878,-0.0888,-0.6339,-0.2257,-17.295,0
0.3131,-0.8761,0.0235,-0.3714,-0.2015,-27.194,0
0.4926,-11.017,-0.0233,-0.0722,0.4213,18.843,0
0.354,-0.8389,-0.0923,0.853,-10.927,22.535,0
0.4814,-10.386,-0.2856,0.2595,0.737,0.3964,0
0.6275,-12.703,-0.1281,-0.7625,-16.43,-0.469,0
0.2372,-0.7812,-0.0216,-0.7743,0.9351,-31.795,0
0.3254,-0.864,0.0416,-0.3637,0.829,0.396,0
0.3802,-0.9666,-0.0232,0.772,-0.8583,25.318,0
0.4631,-0.9102,-0.2144,0.5035,0.5777,0.6664,0
0.5819,-11.95,-0.2273,-0.5696,-0.3331,-0.0513,0
0.2822,-0.7987,-0.0286,-0.8201,0.5708,-26.072,0
0.3291,-0.9057,0.0416,-0.3045,0.152,-11.423,0
0.4946,-12.142,-0.1963,0.7827,-10.439,25.927,0
0.3059,-0.7454,-0.2109,0.9067,0.1985,0.8965,0
0.6162,-13.798,-0.331,-0.4191,0.1813,0.3053,0
0.3045,-0.7608,-0.0581,-0.9482,0.5014,-21.606,0
0.3039,-0.9561,0.0522,-0.5181,0.2354,-12.811,0
0.4609,-0.9906,-0.2373,0.7314,-0.0875,21.644,0
0.4019,-0.6885,-0.1547,0.7772,0.1716,11.48,0
0.4783,-11.66,-0.2385,-0.2872,0.3584,0.4569,0
0.345,-11.097,-0.0455,-0.8739,-0.0374,-18.991,0
0.2844,-0.7543,0.0372,-0.3076,-0.1687,-21.791,0
0.4636,-0.9856,-0.0499,0.1938,10.48,28.7,0
0.3209,-0.6785,-0.1201,0.8003,-0.2161,12.005,0
0.5868,-11.16,-0.2847,0.068,-0.2364,0.714,0
0.548,-12.571,-0.1356,-0.8205,-0.4823,-13.702,0
0.3044,-0.7385,0.0186,-0.4477,0.2023,-25.524,0
0.4051,-0.9521,0.0196,-0.1341,0.6492,11.801,0
0.3958,-10.376,-0.0246,0.9105,-0.9282,19.635,0
0.4759,-0.8437,-0.2073,0.4256,0.7942,0.6932,0
0.4659,-10.424,-0.2657,-0.7551,0.1387,-12.613,0
0.2844,-0.6963,-0.0007,-0.9009,0.2592,-20.039,0
0.3428,-10.054,0.0552,0.0524,0.7784,0.0524,0
0.3867,-11.259,-0.0423,0.6727,-10.505,22.994,0
0.4435,-0.832,-0.1901,0.4193,0.3143,11.769,0
0.5717,-13.006,-0.2244,-0.6899,0.1006,-0.8602,0
0.2759,-0.788,-0.0119,-0.8664,0.3503,-22.748,0
0.3079,-0.95,0.067,-0.1367,0.2256,-10.927,0
0.4608,-11.792,-0.1793,0.7313,-0.6482,23.426,0
0.4056,-0.7388,-0.1217,0.6851,0.1835,14.762,0
0.4965,-11.338,-0.245,-0.468,0.0735,0.1827,0
0.369,-10.528,-0.0192,-0.8375,0.3252,-25.222,0
0.2804,-0.8723,0.0685,-0.3638,-0.0888,-19.523,0
0.4615,-0.9553,-0.125,0.6156,0.0221,26.269,0
0.3491,-0.7034,-0.1345,0.7577,0.4564,14.003,0
0.6022,-11.206,-0.2709,-0.1606,0.1654,0.1188,0
0.3511,-10.061,-0.0251,-0.7617,-0.8974,-20.17,0
0.319,-0.9366,0.0419,-0.2178,-0.3479,-29.057,0
0.4656,-0.8155,-0.1427,0.2606,0.7861,25.391,0
0.3654,-0.7525,-0.1846,0.3913,0.173,23.572,0
0.5742,-10.41,-0.2881,0.2379,-0.2413,0.8891,0
0.6054,-13.065,-0.0821,-0.6474,-0.7148,-16.279,0
0.3311,-0.9232,-0.0014,-0.0986,-0.4389,-33.419,0
0.4432,-0.9634,-0.0444,-0.1339,0.57,12.279,0
0.2858,-0.7874,-0.1001,0.5418,-0.252,27.051,0
0.4611,-0.9231,-0.1998,0.5149,0.3624,10.001,0
0.5091,-0.9375,-0.3205,-0.3706,-0.2028,-12.069,0
0.2964,-0.8639,-0.0152,-0.6217,0.0335,-28.6,0
0.4075,-0.9708,-0.0134,-0.3079,0.5588,-0.6595,0
0.3871,-10.496,-0.0334,0.2493,-0.3863,29.644,0
0.5212,-0.8346,-0.1898,0.44,0.1421,13.737,0
0.5823,-12.468,-0.2585,-0.451,0.3513,-0.7737,0
0.3021,-0.8532,-0.0891,-0.5902,0.0391,-27.951,0
0.2916,-0.8956,0.0692,-0.4179,0.3022,-14.242,0
0.5227,-10.815,-0.2939,0.7399,-16.203,32.77,0
0.3995,-0.7314,-0.1191,0.5493,0.902,12.153,0
0.4733,-12.94,-0.2479,-0.1846,0.1645,0.0271,0
0.3745,-10.143,-0.0602,-0.8993,-0.5319,-18.496,0
0.3051,-0.877,0.0079,-0.4835,-0.3073,-22.386,0
0.4082,-0.8642,-0.1218,0.3439,0.8448,21.739,0
0.3126,-0.7108,-0.1112,0.6312,-0.0091,16.217,0
0.5626,-11.738,-0.308,0.2317,0.071,0.5991,0
0.4874,-11.959,-0.097,-0.7422,-0.7272,-14.296,0
0.285,-0.8171,0.0047,-0.4398,-0.6373,-21.895,0
0.4884,-11.082,-0.09,-0.0993,0.9983,11.602,0
0.3128,-0.6879,-0.1299,0.5113,0.1737,18.969,0
0.4485,-0.8239,-0.2252,0.5552,-0.669,0.9452,0
0.5133,-10.325,-0.3051,-0.5109,-0.4355,-0.8006,0
0.166,-0.86,-0.0051,-12.274,18.434,-29.073,0
0.4295,-0.8713,-0.0116,0.1327,-0.215,0.5891,0
0.418,-13.2,-0.1151,0.5186,0.0033,27.881,0
0.3854,-0.7409,-0.1249,0.5311,0.3025,0.8479,0
0.5513,-13.998,-0.3147,-0.63,-0.2355,-0.6618,0
0.2627,-0.8758,-0.0791,-0.9808,0.413,-21.667,0
0.2946,-0.8626,0.0237,-0.1479,-0.0229,-13.796,0
0.4794,-10.306,-0.2019,0.6261,-0.387,29.164,0
0.3402,-0.7017,-0.134,0.5354,0.6173,0.9991,0
0.4732,-12.202,-0.273,-0.1494,-0.0255,0.2892,0
0.3892,-10.202,-0.0989,-0.7691,-0.7887,-17.466,0
0.2865,-0.8031,0.0039,-0.4691,0.131,-24.199,0
0.4901,-11.532,-0.0792,0.3431,0.5734,25.396,0
0.1907,-0.7177,-0.1057,0.7401,0.321,0.8617,0
0.5775,-10.883,-0.328,-0.0119,-0.1064,0.9474,0
0.531,-12.936,-0.0965,-0.7723,-0.4528,-12.393,0
0.3319,-0.8441,-0.0083,-0.2783,-0.4864,-25.71,0
0.4717,-11.57,-0.0385,-0.0866,0.7675,16.896,0
0.2287,-0.7356,-0.1021,0.8366,-0.9764,16.554,0
0.4684,-0.7977,-0.2657,0.3909,0.308,10.172,0
0.4919,-12.205,-0.1887,-0.5887,-0.217,-11.42,0
0.2644,-0.7238,-0.1438,0.5655,0.7349,0.986,0
0.5776,-10.888,-0.3169,0.0238,-0.1793,0.8335,0
0.5163,-12.788,-0.1173,-0.55,-0.6889,-16.769,0
0.309,-0.7447,-0.0196,-0.4058,-0.4337,-23.217,0
0.5211,-11.213,-0.0929,-0.0029,0.4887,12.282,0
0.3494,-0.8389,-0.1185,0.5309,0.162,21.041,0
0.4911,-0.9095,-0.2847,0.4998,-0.1389,0.8071,0
0.4966,-12.586,-0.2067,-0.7662,0.325,-10.734,0
0.2682,-0.7477,-0.0684,-0.4937,0.071,-25.485,0
0.316,-0.8637,0.0287,-0.0778,0.3358,0.0906,0
0.4783,-12.3,-0.2733,0.8852,-11.281,22.536,0
0.4292,-0.6961,-0.1821,0.6003,0.2858,0.9995,0
0.4648,-13.388,-0.2649,-0.8127,0.8002,-0.1248,0
0.3242,-0.9189,-0.0945,-0.6581,0.036,-22.191,0
0.2751,-0.7988,0.025,-0.2631,-0.299,-13.663,0
0.4408,-0.9165,-0.2043,0.7564,-0.1761,25.514,0
0.3315,-0.6867,-0.1954,0.6062,0.4562,0.8734,0
0.4915,-11.322,-0.3177,-0.0749,-0.2533,0.2264,0
0.4321,-11.836,-0.0928,-0.8954,-0.1534,-16.911,0
0.2988,-0.8091,0.0048,-0.3925,-0.2916,-18.791,0
0.4818,-10.469,-0.0994,0.3361,0.305,22.069,0
0.2422,-0.7006,-0.1285,0.9266,-0.0993,11.588,0
0.5194,-10.398,-0.3347,0.1023,0.0008,0.33,0
0.4667,-12.646,-0.1725,-0.9472,0.4013,-16.698,0
0.2968,-0.7198,0.0034,-0.5221,-0.2798,-18.326,0
0.3966,-0.988,-0.053,0.3738,0.2997,13.652,0
0.2886,-10.152,-0.0963,0.6455,-0.0901,15.946,0
0.4381,-0.8038,-0.2433,0.3649,-0.0538,0.6651,0
0.4577,-10.161,-0.2795,-0.6877,0.7666,-0.742,0
0.2666,-0.7754,-0.0307,-0.4853,-0.162,-22.89,0
0.3729,-0.9223,-0.0312,-0.2655,0.2999,-0.1386,0
0.4181,-12.054,-0.1609,0.6637,-0.7462,20.794,0
0.3776,-0.6639,-0.1472,0.7016,0.1384,0.7257,0
0.4871,-13.085,-0.3017,-0.5276,0.6076,-0.0614,0
0.3008,-0.9319,-0.1051,-0.7734,0.0084,-20.659,0
0.2743,-0.7736,0.0286,-0.343,-0.1537,-15.109,0
0.4838,-0.9834,-0.2837,0.9446,-0.2697,26.488,0
0.3254,-0.6353,-0.1596,0.369,13.985,0.4862,0
0.5657,-11.069,-0.3392,-0.069,-0.1394,0.6843,0
0.5629,-13.332,-0.1024,-0.8813,-0.7884,-11.716,0
0.3066,-0.723,0.0094,-0.3944,-0.295,-21.465,0
0.5179,-11.613,-0.0969,0.2525,0.3526,17.932,0
0.2064,-0.6652,-0.1483,0.9432,-0.4189,10.055,0
0.5343,-10.785,-0.3395,0.0885,-0.0557,0.7831,0
0.5533,-13.174,-0.1591,-0.7778,-0.0069,-12.226,0
0.2965,-0.7281,-0.0249,-0.3539,-0.0601,-23.543,0
0.4623,-11.089,-0.0633,0.0027,0.5114,14.652,0
0.1768,-0.7414,-0.1361,0.382,0.6274,13.0,0
0.5614,-0.8888,-0.2954,0.5255,-11.374,0.8829,0
0.5881,-12.272,-0.2316,-0.3382,0.1429,-0.8759,0
0.2588,-0.7297,-0.0665,-0.4171,-0.0698,-24.544,0
0.3354,-0.8781,0.0048,-0.3656,0.6906,0.0978,0
0.5232,-12.8,-0.2143,0.7243,-14.786,21.782,0
0.4142,-0.668,-0.1671,0.3729,0.812,0.6566,0
0.5735,-0.9953,-0.1865,0.7851,-0.2802,31.364,0
0.3678,-0.7002,-0.1922,0.6202,0.7129,11.088,0
0.4852,-11.446,-0.2964,0.0197,-0.8108,0.5878,0
0.4345,-11.576,-0.1143,-0.8211,-0.4528,-16.604,0
0.26,-0.767,-0.0124,-0.5578,-0.2053,-24.479,0
0.5206,-10.885,-0.1022,0.2051,0.5331,18.878,0
0.2623,-0.8454,-0.1413,0.5942,0.7538,16.373,0
0.4968,-0.8421,-0.2732,0.3561,-0.3088,0.941,0
0.5403,-11.694,-0.2771,-0.6039,0.0281,-0.9556,0
0.2925,-0.7514,-0.0474,-0.5897,-0.0716,-23.956,0
0.3413,-0.879,-0.0136,-0.1551,0.5396,0.0445,0
0.5066,-12.925,-0.2268,0.7978,-0.5698,24.429,0
0.4127,-0.7309,-0.1978,0.5422,0.5641,0.7729,0
0.497,-13.35,-0.301,-0.5384,0.432,-0.1141,0
0.4992,-11.004,-0.1171,-0.809,-0.556,-17.211,0
0.2639,-0.7653,0.0181,-0.3934,0.1607,-18.203,0
0.4631,-0.9588,-0.1759,0.7573,-0.1322,23.748,0
0.3145,-0.715,-0.1757,0.858,0.2615,13.006,0
0.5068,-10.707,-0.3304,0.0611,-0.2298,0.4664,0
0.5251,-12.23,-0.1788,-0.9084,-0.6974,-12.543,0
0.2515,-0.7854,0.0095,-0.8669,0.4601,-24.883,0
0.4888,-11.25,-0.0835,0.3543,0.0986,13.475,0
0.3121,-0.9332,-0.1151,0.9882,-0.1607,15.606,0
0.4519,-0.7761,-0.2834,0.5717,0.0923,0.8672,0
0.5092,-10.756,-0.3264,-0.7697,-0.1932,-0.7874,0
0.289,-0.7183,-0.0684,-0.756,0.1794,-24.355,0
0.3379,-0.8406,-0.0194,-0.2625,0.6971,-0.2396,0
0.4443,-12.193,-0.1432,0.9026,-0.89,19.923,0
0.4114,-0.7014,-0.1943,0.6869,-0.2764,0.9308,0
0.6002,-13.713,-0.3469,-0.7658,0.6377,0.1923,0
0.3285,-0.6986,-0.092,-0.6048,-0.2034,-18.676,0
0.2633,-0.8675,0.0214,-0.6056,0.7099,-0.9924,0
0.4943,-12.612,-0.2428,0.8357,-0.3307,15.392,0
0.4082,-0.6608,-0.1419,0.7084,0.4108,10.917,0
0.4952,-14.097,-0.3141,-0.0341,-0.1521,0.4546,0
0.3671,-0.9008,-0.1198,-0.8964,-0.2021,-14.986,0
0.2599,-0.7467,0.0086,-0.6476,-0.1028,-18.248,0
0.4877,-10.701,-0.1434,0.4079,0.1656,17.281,0
0.2803,-0.7866,-0.1077,0.6518,0.6547,0.8547,0
0.4858,-0.9689,-0.2546,0.4776,-0.5475,10.232,0
0.4769,-11.729,-0.2208,-0.6654,0.0545,-0.9775,0
0.2959,-0.7314,-0.0358,-0.6424,-0.4487,-18.89,0
0.3711,-10.397,-0.0167,-0.246,0.9329,-0.1733,0
0.4241,-11.306,-0.1564,0.9802,-13.891,15.527,0
0.4364,-0.6749,-0.2159,0.6158,0.3971,0.9735,0
0.4392,-11.639,-0.3008,-0.7107,0.2961,0.0149,0
0.3232,-0.7925,-0.0804,-0.9669,-0.4395,-15.785,0
0.2927,-0.8271,0.0291,-0.5193,0.5369,-13.963,0
0.4243,-10.259,-0.2221,0.8334,-0.0653,17.977,0
0.3722,-0.6749,-0.1641,0.7345,0.238,12.111,0
0.5202,-12.726,-0.3422,-0.3252,-0.2746,0.501,0
0.5255,-10.243,-0.1791,-0.7732,0.2769,-12.629,0
0.2717,-0.7515,0.0187,-0.544,-0.1414,-18.17,0
12.842,0.0526,-0.2362,-19.543,24.977,13.038,1
0.3057,0.4504,-0.1,14.73,-0.5391,-26.03,1
10.601,-0.9857,-0.0732,14.3,-0.9917,-23.499,1
-0.1065,-0.7203,0.2003,-0.4013,0.424,30.591,1
10.069,0.3441,-0.276,-16.086,23.222,14.736,1
0.0997,0.4844,-0.0588,10.809,-0.6441,-27.383,1
15.466,-11.082,-0.2509,0.8609,-0.4994,-16.458,1
0.1127,-0.6124,-0.0212,-0.4119,0.0368,22.783,1
13.669,0.1981,-0.2247,-19.224,17.346,18.756,1
0.1656,0.5072,-0.0166,13.623,-0.5861,-27.333,1
0.9711,-0.9115,-0.1347,15.916,0.5062,-16.844,1
0.3394,-0.7747,0.0451,-12.522,-0.4826,24.021,1
0.9977,0.4357,-0.183,-11.841,19.555,11.01,1
0.3497,0.3292,-0.1137,15.133,0.1762,-21.542,1
0.855,-0.7477,0.0615,19.114,-12.625,-17.883,1
-0.0965,-0.8837,0.159,-10.289,0.2249,23.562,1
13.233,0.238,-0.1522,-18.892,22.548,22.714,1
0.5254,0.3091,-0.0492,15.849,-0.005,-32.741,1
0.9342,-0.956,-0.0508,19.486,-13.634,-17.302,1
0.2579,-0.8286,0.0826,-0.9885,0.2096,24.049,1
10.814,0.6762,-0.0028,-22.543,18.249,19.164,1
11.158,0.3075,-0.1805,16.189,-0.0943,-31.26,1
0.6192,-0.7648,-0.1519,12.654,-0.6125,-16.743,1
0.3125,-0.7024,-0.0331,-0.8709,0.3302,25.428,1
0.7884,0.7344,-0.0879,-17.433,21.334,13.87,1
0.1548,0.4953,0.0827,19.522,-11.432,-28.296,1
11.965,-10.103,-0.0942,16.407,-0.5624,-11.906,1
0.0777,-0.7522,0.0706,-16.195,0.5456,35.099,1
11.841,0.1708,-0.1742,-16.029,21.286,10.01,1
0.7611,0.4497,-0.1464,17.89,0.0351,-32.995,1
0.6119,-0.9305,-0.079,15.739,-0.7227,-0.982,1
0.2711,-0.8276,-0.0399,-12.225,14.597,35.949,1
0.9386,0.4057,-0.3624,-14.903,14.681,20.839,1
10.13,0.3192,-0.2431,19.05,15.77,-33.72,1
0.1867,-0.8794,-0.0647,16.016,-0.014,-0.1271,1
10.273,-0.8275,-0.2073,-11.823,11.224,28.95,1
0.7452,0.573,-0.2485,-11.99,14.42,10.642,1
13.745,0.3329,-0.0108,19.004,25.643,-27.332,1
0.4057,-0.7318,-0.0543,18.145,-0.1403,-0.9091,1
15.584,-10.274,-0.331,-11.249,23.09,34.477,1
0.7,0.7352,-0.2448,-13.498,0.9527,11.01,1
0.9264,0.3085,-0.0591,20.652,12.467,-23.743,1
0.1864,-0.84,0.1047,14.969,-0.4947,0.1683,1
0.8097,-0.907,-0.2722,-18.24,24.252,39.252,1
0.7128,0.8523,-0.2439,-0.5677,10.154,0.7273,1
10.764,0.2838,-0.121,23.466,11.442,-22.255,1
0.3169,-0.7918,0.1145,10.193,-11.069,0.0635,1
10.789,-0.924,-0.0786,-10.227,25.073,39.71,1
0.5458,10.347,-0.2085,-13.673,0.6324,0.7227,1
33.88,-0.149,-0.1416,18.6,18.447,-17.263,1
0.586,-0.6371,-0.158,13.039,-0.6743,-0.3974,1
21.69,-0.8969,-0.4853,-10.288,30.83,32.277,1
34.887,-10.723,-0.1066,23.324,-11.111,-21.49,1
-0.5946,-0.4305,0.0742,0.8283,-0.7269,10.145,1
26.972,-0.8657,-0.6055,-16.993,0.5025,0.64,1
-0.0775,0.8829,-0.1928,0.0442,0.1985,-0.1702,1
32.452,-0.802,-0.23,18.437,-10.075,-29.294,1
-0.5386,-0.6799,0.2686,0.4493,-0.6322,0.5641,1
28.889,-0.9917,-0.6115,-11.939,0.1183,23.073,1
0.0456,10.885,-0.2076,0.065,-0.216,-10.235,1
32.264,-0.6621,-0.5487,14.787,-18.977,-35.761,1
-0.354,-0.4236,0.0791,0.7658,-0.3787,0.6401,1
28.641,-10.998,-0.8614,-0.5602,-0.6288,24.683,1
0.1848,0.9479,-0.264,-0.124,0.0956,-0.6674,1
40.475,-0.3555,-0.3066,14.935,-0.4123,-28.354,1
-0.4507,-0.517,0.2088,0.5458,-0.5344,0.9364,1
28.314,-0.9437,-0.9767,-13.681,0.7702,23.239,1
-0.0065,0.9514,-0.0914,-0.3194,0.1613,-0.5796,1
38.201,-0.5413,-0.6279,0.9098,-15.004,-28.036,1
-0.5588,-0.3299,0.1755,0.3105,-0.1007,11.138,1
30.883,-14.509,-10.165,-0.9526,-0.4552,30.044,1
0.1477,10.921,-0.2145,0.4663,-0.2417,-17.537,1
44.313,-11.276,-0.5928,0.3606,-23.201,-23.14,1
-0.6298,-0.256,0.1996,0.516,-0.5301,13.373,1
27.703,-15.968,-11.892,-0.5883,-0.5169,26.865,1
0.1846,0.8647,-0.1803,-0.0201,-0.0564,-15.139,1
31.003,-0.9753,-0.9276,0.9348,-12.662,-30.832,1
-0.3584,-0.4086,0.2746,0.801,-0.2168,0.1968,1
24.375,-15.556,-11.245,-0.7418,-0.1383,28.205,1
-0.001,12.657,-0.1924,-0.2572,0.2391,-13.021,1
35.383,-10.4,-0.5612,17.302,-17.702,-34.214,1
-0.4626,-0.591,0.2547,0.2062,-0.8617,0.5284,1
27.244,-0.9675,-11.253,-0.6104,0.3442,25.774,1
0.0393,10.446,-0.2309,-0.4937,0.6758,-0.5939,1
34.591,-0.8639,-0.5479,12.908,-10.942,-20.545,1
-0.5025,-0.4661,0.0176,10.985,-0.6092,11.423,1
29.969,-12.482,-0.7094,-0.6065,-0.1267,26.428,1
0.1079,11.24,-0.2376,-0.1821,0.599,-0.9231,1
33.986,-13.005,-0.3822,11.627,-17.505,-28.553,1
-0.5083,-0.3965,0.1287,0.71,-12.603,10.069,1
29.531,-11.787,-0.9984,-0.5086,0.2607,12.604,1
0.0971,0.9451,-0.2686,-0.1949,0.6305,-12.541,1
35.865,-0.7089,-0.407,16.098,-0.2748,-18.08,1
-0.593,-0.4543,0.0788,10.513,-0.3549,0.9673,1
31.935,-12.121,-0.7962,-15.987,0.2172,14.943,1
0.1546,0.951,-0.289,-0.3544,0.2891,-0.8108,1
35.644,-0.7968,-0.5089,12.048,0.2651,-24.589,1
-0.5205,-0.3186,0.0872,0.7769,-0.5214,13.176,1
26.827,-14.362,-0.7252,-11.778,-0.2708,15.813,1
0.177,10.291,-0.1846,-0.5095,0.2879,-11.556,1
33.624,-0.6308,-0.5406,15.782,-11.42,-30.218,1
-0.2582,-0.4886,0.0105,0.7879,-15.142,-0.618,1
26.451,-0.8845,-0.6549,-0.2725,0.6725,34.152,1
0.2458,12.398,-0.267,-0.4734,-0.1106,-0.4711,1
36.693,-0.5573,-0.4015,16.889,-0.3608,-25.011,1
-0.4821,-0.5633,0.0581,0.4138,0.5662,0.6665,1
26.559,-0.7742,-0.3304,16.845,-17.893,-21.087,1
-0.4764,-0.4119,0.2234,0.3836,-0.2449,17.188,1
17.442,-0.5955,-0.3761,-16.429,19.906,12.303,1
-0.0351,0.7579,-0.1007,0.5284,-0.4795,-19.808,1
19.895,-10.213,-0.4164,11.22,-11.936,-21.033,1
-0.369,-0.4366,0.1833,-0.329,-0.5702,24.243,1
19.97,-0.5513,-0.8103,-11.789,15.507,16.246,1
0.4097,0.354,-0.3583,10.583,-10.248,-28.518,1
0.9754,-0.7695,-0.4306,0.1216,-0.3615,-17.934,1
0.206,-0.6472,-0.067,0.7315,-0.4061,13.691,1
10.621,-0.1929,-0.7685,-16.644,19.308,26.364,1
0.0417,0.6218,-0.1006,0.2093,-0.6409,-24.788,1
11.458,-0.8341,-0.4767,14.268,-0.9194,-34.042,1
-0.2596,-0.5145,0.1429,0.1058,0.295,18.873,1
16.047,-0.4743,-0.7672,-14.141,21.888,19.474,1
0.325,0.397,-0.2671,0.8957,-0.8694,-25.99,1
14.008,-0.8608,-0.3373,0.2385,0.8791,-17.174,1
-0.3763,-0.516,0.1537,-0.6215,0.2072,19.97,1
16.827,-0.4922,-0.7959,-15.593,12.694,10.305,1
0.0763,0.4468,-0.1306,0.637,0.315,-22.445,1
0.7905,-0.5339,-0.3049,16.014,-0.2222,-13.478,1
0.2939,-0.7247,0.0721,-0.419,0.1591,21.092,1
0.8577,0.1663,-0.4026,-18.101,23.25,0.8939,1
0.4673,0.3008,-0.1931,0.5633,-0.2185,-22.966,1
16.925,-0.7237,-0.4773,14.959,-0.7141,-0.9183,1
0.0025,-0.4831,0.1796,-17.011,-0.8819,14.94,1
16.208,-0.4855,-0.5535,-13.164,20.25,13.123,1
0.6416,0.3815,-0.2372,14.653,-0.2098,-32.203,1
0.8396,-0.7802,-0.2427,0.7208,-0.5565,-17.93,1
0.4449,-0.8162,0.0784,-0.3299,0.1614,29.426,1
13.22,-0.1163,-0.5591,-19.911,22.322,13.659,1
-0.0307,0.6906,-0.1627,10.114,-0.1884,-23.633,1
20.077,-0.6714,-0.4901,0.4854,-0.3194,-21.439,1
0.0874,-0.5035,0.2611,-0.0478,0.0372,19.221,1
15.898,-0.3323,-0.7156,-19.113,19.282,20.333,1
0.1321,0.4387,-0.1167,0.8887,-0.2044,-27.544,1
11.544,-0.5261,-0.4103,0.4854,0.6506,-19.844,1
-0.0061,-0.704,0.2546,-0.1002,-0.4201,17.426,1
12.545,-0.193,-0.6424,-19.572,12.698,18.219,1
0.2499,0.5397,-0.1678,0.8478,-10.864,-25.954,1
20.5,-0.6793,-0.6166,19.667,-10.369,-27.19,1
-0.1622,-0.7815,0.1963,-10.138,0.52,20.257,1
20.495,-0.4677,-0.7692,-16.827,15.821,13.228,1
0.0132,0.7259,-0.159,0.3205,0.2592,-19.572,1
12.711,-0.7848,-0.3188,16.818,-22.997,-26.785,1
-0.1518,-0.6312,0.3126,-0.4154,0.1038,25.393,1
27.215,-0.5159,-0.2514,-20.922,15.958,16.363,1
0.1885,0.5835,-0.1118,0.8641,-0.8181,-19.866,1
14.98,-0.8996,-0.1898,20.171,-0.7807,-24.175,1
-0.515,-0.5727,0.2651,-0.1476,-0.2816,22.49,1
13.238,-0.3521,-0.5447,-10.699,15.515,13.438,1
0.1201,0.7031,-0.119,0.4137,-0.2736,-24.92,1
27.474,-0.7081,-0.4079,16.027,-27.397,-32.87,1
-0.3541,-0.6354,0.3477,-0.1567,0.5086,22.916,1
32.17,-10.82,-0.5744,20.683,-19.867,-31.75,1
-0.4271,-0.4911,0.3034,0.8439,-11.173,-0.1833,1
27.954,-15.323,-13.792,-0.5366,0.1303,33.351,1
0.2894,14.028,-0.5542,-0.8522,-0.7683,-11.262,1
18.398,-0.6768,-20.77,-0.7316,-40.366,-36.134,1
-0.0494,-0.3568,-0.071,0.0712,-19.677,-15.272,1
0.0248,-0.1755,-19.373,16.799,0.366,13.842,1
-0.4418,0.3335,-0.3227,0.0139,-0.6016,-0.1992,1
-0.2464,-0.0813,-22.483,-29.197,11.822,-0.0259,1
-0.0682,-0.6349,0.1655,0.7123,16.004,-0.0749,1
19.242,-10.366,-22.915,14.664,22.38,52.798,1
0.2247,14.678,-0.5198,-0.5811,11.114,-11.84,1
36.988,-0.8705,-16.681,0.7824,0.1022,-36.922,1
-0.2857,-0.4606,0.2648,0.5999,-0.6579,0.1582,1
26.513,-0.9451,-13.856,-0.4129,0.3885,35.336,1
0.0274,0.8649,-0.2379,-0.1909,11.011,-0.3044,1
40.215,-11.729,-0.866,0.8855,-0.4395,-25.95,1
-0.7046,-0.4154,0.2768,0.7593,-0.7879,10.906,1
23.21,-0.9141,-0.9376,-0.7641,14.682,31.143,1
0.2926,0.9283,-0.3383,-0.3158,0.7961,-0.9903,1
31.437,-0.2131,-0.6996,16.111,23.478,-25.049,1
-0.4069,-0.5281,0.0567,11.061,0.1277,-0.1347,1
30.975,-0.9026,-11.444,-0.9423,0.2246,39.236,1
0.5731,11.913,-0.3083,-0.6083,-0.1741,0.2488,1
42.238,-0.5313,-0.0497,23.511,37.946,-14.452,1
-0.3394,-0.4036,-0.0262,17.406,0.6598,-0.0475,1
20.223,-0.9981,-0.3139,-18.46,15.261,33.108,1
0.629,0.875,-0.2939,-11.591,0.4018,0.5336,1
25.231,0.4203,-0.0623,24.026,0.3467,-13.841,1
-0.0907,-0.6535,0.0121,12.049,0.4435,0.2355,1
28.116,-0.9735,-0.0479,-26.839,26.433,33.329,1
0.388,0.9028,-0.2194,-0.8652,0.6186,0.17,1
37.266,-10.659,0.1835,19.36,0.5034,-0.7577,1
0.096,-0.5346,-0.0084,0.9334,-0.9921,10.009,1
24.385,-10.021,-0.3412,-13.086,30.251,35.416,1
0.0766,0.9368,-0.308,-10.792,0.9516,-0.1491,1
38.419,-0.9718,-0.0695,18.822,-15.324,-12.225,1
-0.1822,-0.5644,0.0186,14.198,-0.2306,-0.139,1
30.238,-10.193,-0.1693,-18.21,20.083,47.785,1
0.3469,10.577,-0.3449,-11.445,0.8336,0.1539,1
28.429,0.0454,0.0422,16.052,0.5932,-21.407,1
-0.2414,-0.3678,-0.0039,22.208,-0.7829,12.808,1
20.575,-13.58,-0.7387,-12.81,20.491,36.795,1
0.5782,0.4832,-0.3719,-10.701,10.781,0.1897,1
14.363,0.206,-0.3038,0.8552,20.9,-12.832,1
0.0461,-0.688,-0.0844,15.38,-0.8799,0.8223,1
30.629,-12.855,-0.3976,-22.289,24.506,35.591,1
0.4769,0.5727,-0.2918,-0.5345,0.7669,0.2518,1
17.3,0.1921,-0.2747,15.786,0.6557,-13.531,1
0.0475,-0.6596,-0.01,15.301,-0.6501,0.3165,1
15.798,-11.152,-0.1888,-16.048,14.578,40.923,1
0.6327,0.6182,-0.2927,-0.7688,0.6744,0.9516,1
16.883,-0.1998,-0.3919,16.839,0.225,-21.432,1
0.4011,-0.6534,-0.1626,0.8242,-13.04,-0.5481,1
-0.4398,-0.4562,0.2005,0.0335,0.4219,17.279,1
11.243,-0.2109,-0.5155,-13.096,15.939,14.524,1
0.0973,0.5464,-0.1315,0.4302,-0.0212,-17.209,1
14.922,-0.704,-0.1622,14.944,-0.7577,-29.957,1
-0.4356,-0.5608,0.0157,0.1834,-10.025,13.024,1
14.637,-0.3769,-0.5461,-12.27,0.2532,14.346,1
0.0256,0.9131,-0.2198,0.0984,0.0171,-14.52,1
22.81,-0.7054,-0.1844,17.492,-0.8668,-27.332,1
-0.2009,-0.6638,0.2423,-0.078,-0.979,13.609,1
17.307,-0.3938,-0.6408,-13.324,-0.0219,21.747,1
0.1028,0.7029,-0.1704,0.6785,-0.0762,-12.814,1
30.143,-0.8024,-0.4528,0.6309,-10.309,-33.088,1
-0.4811,-0.6248,0.2323,0.2473,-0.5983,0.2066,1
34.826,-0.922,-0.6781,-0.9894,-0.4392,24.398,1
0.1818,11.204,-0.2775,-0.0691,-0.1124,-11.318,1
27.128,-0.6601,-0.4324,20.105,-11.746,-25.074,1
-0.5716,-0.4141,0.2387,0.7723,-11.154,0.3976,1
27.507,-0.9311,-0.8094,-0.696,-0.0479,21.544,1
0.0942,0.7557,-0.0995,-0.2259,-0.5039,-0.6771,1
31.302,-0.8786,-0.3861,11.691,-0.0647,-23.266,1
-0.5773,-0.2979,0.1232,0.699,-0.3012,0.4355,1
26.117,-0.8966,-0.8188,-11.954,0.3764,22.726,1
0.0309,0.9411,-0.1196,-0.5551,0.1182,-0.4442,1
42.949,-0.7483,-0.342,11.556,-0.6339,-19.728,1
-0.4326,-0.5739,0.3469,10.603,-0.7377,-0.3475,1
23.081,-0.4963,-0.0715,-10.307,27.834,34.352,1
-0.0152,0.934,-0.1933,-0.6085,-0.1759,-0.2697,1
37.657,-0.9491,-0.2964,16.935,10.699,-11.089,1
-0.319,-0.509,-0.0381,0.8683,-11.565,0.2488,1
25.845,-0.9431,-0.2919,-0.8705,12.347,21.752,1
0.4767,0.8574,-0.3544,-0.1682,-0.0119,-0.7566,1
24.473,0.25,-0.1825,15.68,-0.9087,-15.644,1
-0.5744,-0.4027,0.0527,10.743,-11.602,0.708,1
31.518,-11.24,-0.8093,-12.728,0.5288,19.325,1
0.2984,0.8782,-0.2918,-0.502,0.2678,-0.6163,1
33.174,0.0111,-0.1234,17.948,0.0173,-23.218,1
-0.2283,-0.4534,-0.0542,10.38,-12.664,10.808,1
25.31,-0.9287,-0.4232,-0.9666,-0.2837,16.537,1
0.1156,0.7463,-0.217,-0.2924,0.1455,-0.7344,1
28.718,-0.0728,-0.1544,11.874,0.3626,-23.553,1
-0.5399,-0.3993,0.1271,0.6522,-0.7527,0.5136,1
29.398,-0.9477,-0.7688,-12.46,11.776,27.973,1
0.1894,0.9067,-0.2074,-0.0974,0.1287,-0.9876,1
30.987,0.2282,-0.1623,13.218,-0.6683,-10.447,1
-0.4515,-0.0754,-0.419,12.168,-18.049,0.9975,1
29.825,-11.201,-0.5483,-13.193,-0.8343,21.133,1
0.0942,0.8212,-0.1923,-0.2499,0.4467,0.1342,1
35.811,-0.738,-0.4606,17.209,-18.066,-29.235,1
-0.5993,-0.579,0.2173,0.8706,-0.5875,-0.2691,1
32.631,-0.6898,-0.8467,-15.153,21.788,39.869,1
0.057,11.82,-0.2292,-0.3796,0.6165,-0.1231,1
42.646,-0.8769,0.1481,18.422,-10.562,-12.11,1
-0.5958,-0.3252,-0.0428,12.456,-13.131,0.4554,1
34.33,-0.9768,-0.5693,-24.103,26.212,41.936,1
18.339,-0.8181,-0.27,23.292,-12.006,-23.084,1
-0.3589,-0.6168,0.1673,-12.385,-0.6485,21.728,1
18.156,-0.5145,-0.8282,-0.1466,13.491,12.653,1
0.3673,0.4833,-0.1574,0.9822,-0.9224,-22.42,1
10.838,-0.972,-0.097,11.957,0.0964,-24.13,1
0.0943,-0.7963,-0.0082,-0.1675,-0.6469,0.9991,1
17.155,-0.6117,-0.5585,-0.7765,12.846,11.462,1
-0.0737,0.7162,-0.1786,11.052,-0.4062,-16.471,1
15.065,-11.658,-0.5037,0.206,0.4573,-0.6975,1
-0.1114,-0.3176,0.0997,-0.8085,0.1172,18.95,1
14.153,-12.017,-0.3017,-0.9705,22.939,28.266,1
0.4162,0.269,-0.281,14.705,11.065,0.7181,1
0.0054,-18.055,0.0457,-0.0494,16.585,0.0699,1
0.2369,0.1521,-0.0139,0.141,0.4665,0.3444,1
0.7278,-11.502,-0.2004,-0.3172,-10.583,-0.108,1
0.2957,-14.956,-0.14,-19.039,0.0338,-0.8463,1
0.4849,0.6276,-0.0993,-0.3941,-0.0451,-35.127,1
19.186,-16.849,-0.0995,17.252,-19.593,-39.435,1
-0.4445,-0.7503,0.3621,0.6251,-0.3076,13.586,1
23.389,-12.721,-11.428,-0.2426,0.9694,0.5578,1
0.0198,0.7983,-0.1494,0.1903,0.0003,-19.256,1
28.327,-10.411,-0.522,16.389,-13.406,-32.457,1
-0.3841,-0.3891,0.2153,0.3975,-0.4909,0.8118,1
25.768,-11.741,-11.246,-0.8089,14.72,19.359,1
0.0412,0.9776,-0.186,0.038,0.0059,-14.215,1
34.646,-13.415,-0.9971,16.328,-0.6293,-35.715,1
-0.478,-0.588,0.4134,-0.0926,-0.2095,0.9744,1
21.048,-0.8591,-11.546,-0.6422,10.022,15.739,1
0.0539,11.03,-0.1547,-0.258,0.2281,-0.9981,1
33.864,-0.9567,-0.6034,17.25,-0.6662,-33.459,1
-0.1014,-0.8244,0.2327,0.136,0.1937,20.598,1
19.767,-0.5574,-0.8998,-0.6453,0.6141,11.344,1
-0.0263,0.8264,-0.1595,0.3447,0.2079,-14.97,1
31.714,-0.9791,-0.5271,13.483,-22.532,-30.696,1
-0.4274,-0.5622,0.3604,-0.0346,-0.181,12.706,1
28.791,-11.682,-12.623,-0.5576,0.7548,16.588,1
-0.0287,0.8841,-0.2292,-0.1406,0.3379,-18.913,1
40.733,-14.406,-14.376,-0.6782,-30.121,-24.96,1
-0.5723,-0.5994,0.3602,11.863,-0.5626,0.3163,1
21.859,-0.7875,-14.69,0.3879,-0.8127,25.275,1
0.1986,0.9646,-0.275,-0.0609,0.2598,-0.6962,1
36.346,-11.758,-11.972,0.892,-10.957,-25.626,1
-0.5727,-0.3636,0.2151,0.2091,-0.6123,0.7769,1
20.04,-11.992,-15.419,0.6877,-0.9961,31.161,1
0.2816,10.035,-0.2032,-0.5214,11.3,-0.75,1
21.083,-11.63,-0.9092,13.889,-14.175,-24.203,1
-0.3487,-0.3036,0.2212,0.493,-10.774,-0.0047,1
30.49,-14.392,-11.444,-10.984,-10.55,22.276,1
0.3841,0.8725,-0.2556,-0.2645,0.5964,-0.574,1
35.548,-12.92,-15.319,13.712,-51.272,-15.158,1
-0.4284,-0.3165,0.2492,0.7837,-10.931,-0.943,1
19.24,-0.8788,-13.249,-0.2972,-0.8375,25.174,1
-0.0448,0.9791,-0.1265,-0.6932,10.108,-0.527,1
38.116,-0.3927,-0.8557,18.705,-0.644,-25.157,1
23.23,-0.9296,-0.4523,22.173,-26.132,-26.054,1
-0.1973,-0.7251,0.3757,-12.883,0.4394,28.567,1
17.671,-0.2994,-0.6273,-0.9822,21.341,10.893,1
-0.0003,0.5509,-0.0339,0.3311,-0.1025,-26.312,1
12.782,-0.8779,-0.4586,19.958,-12.463,-22.714,1
0.3797,-0.8698,0.11,-14.267,-0.2087,24.684,1
10.034,-0.1077,-0.5644,-0.2359,0.8871,14.457,1
0.4588,0.4234,-0.2403,0.528,-0.409,-23.514,1
0.7131,-0.9219,-0.4869,0.2231,-15.774,-19.895,1
-0.1096,-0.566,0.289,-0.1195,0.0084,12.844,1
12.352,-0.3476,-0.9165,-0.1594,-0.2175,13.915,1
0.3113,0.5441,-0.2698,0.4354,0.3064,-22.628,1
18.011,-0.649,-0.5687,18.031,-11.464,-29.698,1
0.1349,-0.8809,0.3209,-11.518,-0.2381,15.16,1
23.919,-0.4421,-0.9301,-0.9967,13.18,16.467,1
-0.1105,0.7753,-0.1093,0.5893,0.435,-22.2,1
28.297,-0.3251,-0.6379,0.8683,-14.573,-28.949,1
-0.0273,-0.5784,0.1586,0.3361,-10.247,14.829,1
18.732,-0.2106,-0.7187,-13.412,0.3126,29.75,1
0.0863,0.8216,-0.0785,0.527,-0.4217,-16.386,1
20.751,-10.356,-0.4238,14.259,-15.66,-35.602,1
-0.2492,-0.717,0.3146,0.2852,-0.6544,0.6621,1
21.64,-0.2197,-0.4886,-11.874,10.201,17.526,1
-0.0011,0.6745,-0.0982,0.1548,-0.1083,-18.532,1
27.62,-0.632,-0.3367,18.835,-0.6935,-27.417,1
-0.2951,-0.662,0.291,-0.2036,-0.3807,15.365,1
22.16,-0.4512,-0.6534,-12.201,15.016,10.401,1
-0.0057,0.7439,-0.1041,0.4292,-0.2793,-16.887,1
28.052,-0.7857,-0.3907,16.742,-12.324,-27.527,1
-0.3984,-0.4893,0.1428,-0.6602,-0.2835,14.563,1
19.67,-0.3132,-0.5467,-13.548,14.281,17.402,1
-0.0167,0.7959,-0.1272,0.2077,0.165,-15.637,1
26.27,-0.6773,-0.3661,24.893,-0.8685,-19.365,1
-0.3455,-0.4868,0.0943,-0.857,-0.2201,24.776,1
15.632,-0.4641,-0.5788,-13.359,0.9971,0.8176,1
0.0206,0.7541,-0.1025,0.3689,0.2122,-14.397,1
27.095,-10.83,-0.4547,21.69,-15.088,-19.889,1
-0.4477,-0.4633,0.1947,-0.8889,-0.5673,24.299,1
10.844,-0.2524,-0.7184,-0.7688,19.376,10.253,1
0.0375,0.7257,-0.1868,0.8752,-0.1611,-20.778,1
28.818,-0.7261,-0.0546,18.913,0.0253,-27.665,1
-0.3932,-0.5626,0.174,-0.3885,-0.2295,14.401,1
15.817,-0.6067,-0.5184,-17.554,10.618,20.087,1
0.2831,0.6609,-0.1,10.504,-0.5324,-16.174,1
27.903,-0.8052,-0.5299,17.319,-0.4128,-35.172,1
-0.3064,-0.9323,0.2594,-13.525,0.3259,17.348,1
24.92,-0.6335,-0.6206,-0.7327,0.7805,22.39,1
0.1036,0.8475,-0.147,0.793,-0.4515,-21.872,1
33.077,-0.8766,-0.3214,10.797,-16.107,-30.776,1
-0.4,-0.602,0.2442,0.4431,-0.543,0.8538,1
18.901,-0.3418,-0.5641,-0.8624,0.0579,15.613,1
0.2248,0.733,-0.1192,0.638,-0.3596,-19.243,1
18.58,-0.7646,-0.4637,0.6001,-0.5724,-33.75,1
-0.2623,-0.6538,0.3171,-0.04,0.0304,16.833,1
0.1149,0.9208,-0.1648,0.1474,0.4501,-0.9355,1
33.095,-0.8778,-0.2967,19.599,-20.781,-28.86,1
-0.4255,-0.686,0.2512,0.3862,-0.666,17.382,1
20.017,-0.8094,-10.0,-0.5088,-11.736,23.007,1
0.2962,0.7564,-0.1415,0.1246,18.214,-14.219,1
26.47,-10.36,-0.6667,14.66,-18.007,-30.734,1
-0.5148,-0.4333,0.1438,12.612,-0.7606,0.1666,1
24.838,-12.419,-10.938,-0.6586,0.3012,22.873,1
0.0885,0.7311,-0.142,-0.2768,0.1514,-12.328,1
26.859,-0.9184,-0.5793,15.632,-10.015,-27.486,1
-0.5675,-0.3858,0.2005,0.6772,-0.744,0.8198,1
25.379,-15.497,-10.846,-10.716,13.003,16.397,1
-0.0037,10.49,-0.1534,-0.318,0.4696,-10.838,1
29.216,-0.9571,-0.5361,16.961,-0.6603,-29.067,1
-0.3309,-0.6255,0.0737,0.4143,-0.4144,0.2581,1
29.944,-10.018,-0.9018,-0.7284,-12.616,24.689,1
0.0733,10.287,-0.2347,0.2765,0.3702,-12.135,1
30.602,-0.8299,-0.8612,0.6415,-19.235,-32.966,1
-0.2425,-0.6864,0.2781,-0.1987,-15.908,10.648,1
18.179,-0.8541,-13.728,10.404,-15.686,26.432,1
0.0647,0.9939,-0.427,0.173,12.092,-14.419,1
38.431,-11.822,-0.7579,0.6684,-0.8579,-28.429,1
-0.3959,-0.3369,0.1996,13.168,-0.7298,0.4579,1
22.587,-10.09,-0.8496,-0.9281,0.128,21.055,1
0.3506,10.047,-0.2136,-10.619,0.8082,-0.0257,1
30.571,-0.3707,-0.5357,21.828,-0.3096,-33.448,1
-0.2391,-0.5706,0.1469,10.109,-0.2408,0.1076,1
25.14,-0.8755,-0.5217,-0.6791,10.911,38.249,1
0.3737,10.798,-0.317,-0.8782,0.4104,-0.4265,1
27.195,-0.1281,-0.3843,20.944,0.3003,-16.015,1
-0.1912,-0.3584,0.0508,0.9534,-0.602,0.7696,1
22.904,-13.012,-0.5302,-17.653,36.325,35.509,1
0.3589,0.9328,-0.1869,-0.5841,0.1987,-0.771,1
35.475,-0.6199,-0.1,21.644,-0.7402,-31.191,1
-0.5966,-0.4161,0.0755,13.183,14.889,10.172,1
33.21,-10.755,-0.2665,-18.743,0.5156,19.331,1
0.1055,0.9403,-0.2269,-0.0786,-0.1606,-14.95,1
32.064,-0.366,-0.1395,18.924,-0.4059,-21.659,1
-0.4231,-0.3474,-0.029,0.9996,-0.8039,12.153,1
32.036,-0.9115,-0.5456,-19.517,0.8727,0.8553,1
0.071,0.9415,-0.148,-0.1426,0.7052,-0.6874,1
34.464,-0.5653,-0.3016,14.562,-26.149,-21.23,1
-0.3888,-0.4642,0.1427,0.5839,-0.4906,16.302,1
21.328,-0.5928,-0.4868,-15.346,0.4132,12.937,1
0.0234,0.8069,-0.0888,-0.0756,0.657,-10.908,1
31.633,-0.9491,-0.3267,18.137,-24.493,-31.093,1
-0.5412,-0.4169,0.1237,0.7391,-0.8433,12.184,1
27.751,-10.689,-0.8597,-0.8814,0.0032,13.247,1
0.0516,0.8735,-0.1416,-0.2062,0.1421,-18.336,1
30.552,-0.7449,-0.3178,11.628,-0.7308,-18.525,1
-0.3814,-0.4638,0.1365,0.5248,-0.4927,21.793,1
0.8844,-0.5342,-0.9628,-12.172,17.194,13.127,1
0.2414,0.7835,-0.157,0.2085,0.3932,-22.702,1
27.258,-10.553,-0.4366,16.739,-17.194,-22.456,1
-0.2485,-0.7869,0.3792,0.3181,-0.7243,18.513,1
24.816,-0.6141,-0.6396,-13.135,14.184,11.067,1
0.0151,0.7959,-0.2068,0.4635,0.2006,-15.83,1
25.498,-0.889,-0.2536,18.496,-21.971,-28.366,1
-0.4253,-0.5791,0.4281,-0.1756,0.0973,20.213,1
19.587,-0.4579,-0.6461,-15.169,13.984,13.578,1
0.057,0.5877,-0.1094,0.2246,-0.2783,-21.774,1
23.727,-0.6199,-0.5291,18.748,-15.391,-26.564,1
-0.333,-0.5845,0.2864,-0.1808,0.3715,21.617,1
18.629,-0.5143,-0.6631,-15.033,16.833,14.446,1
-0.0588,0.8786,-0.1098,0.3616,-0.1852,-19.694,1
30.173,-12.551,-0.3531,10.802,-10.222,-20.851,1
0.1407,-0.7514,0.1237,0.1335,-0.4171,21.04,1
13.793,-0.42,-0.7547,-15.275,25.718,10.823,1
0.2332,0.5468,-0.1843,0.8293,-0.5985,-26.793,1
17.294,-0.8369,-0.4003,0.5461,-0.3067,-16.717,1
-0.1187,-0.7431,0.2354,-0.2666,-0.2016,28.414,1
13.39,-0.3249,-0.6266,-14.504,22.207,0.9236,1
0.2101,0.5741,-0.1315,0.4455,-0.385,-23.554,1
14.6,-10.725,-0.4107,15.279,-0.0189,-17.571,1
0.127,-0.8137,0.1147,-0.9321,-0.5508,29.797,1
0.9388,0.0341,-0.4231,-15.764,19.611,0.7115,1
0.2691,0.4861,-0.1794,10.385,-0.8379,-22.859,1
0.9935,-0.5425,-0.2921,19.043,-0.5453,-10.758,1
-0.0715,-0.7569,0.3088,-0.493,-0.1652,17.32,1
12.24,-0.3381,-0.5354,-21.268,17.62,13.184,1
0.408,0.4703,-0.1401,0.7445,-0.6818,-26.236,1
10.787,-0.74,-0.2684,23.804,-0.7626,0.0446,1
0.0761,-0.9866,-0.0701,-16.325,0.8589,34.969,1
0.8701,0.4501,-0.3575,-0.8042,0.8556,0.209,1
19.043,0.0692,-0.3406,0.9687,0.1914,-18.672,1
0.0021,-0.6182,-0.0858,16.112,-0.9798,0.8345,1
18.615,-10.738,-0.3941,-17.695,25.014,36.187,1
0.3049,0.6504,-0.3519,-0.7763,0.9284,-0.3494,1
27.903,-0.1497,-0.4471,17.34,0.3574,-18.588,1
0.1378,-0.498,-0.0914,14.419,-13.001,0.8789,1
24.456,-15.694,-0.8289,-0.6383,11.07,28.814,1
0.2609,0.921,-0.4986,-0.3645,13.53,0.381,1
29.779,-0.2855,-0.6568,-0.083,0.2848,-19.919,1
-0.3134,-0.4665,0.0177,20.196,-0.5357,-0.1258,1
21.224,-11.224,-0.3451,-21.148,31.223,38.648,1
0.2756,10.395,-0.4076,-0.8703,-0.6097,-0.4303,1
23.353,-0.048,-10.435,14.847,0.0446,-34.221,1
0.5261,-0.6665,-0.4961,13.273,-44.403,-15.054,1
0.2743,-0.5922,-11.181,-0.1525,0.8808,25.744,1
0.0695,0.3805,-0.5371,0.2356,-35.53,-0.4945,1
-0.3189,0.007,-15.999,-0.6201,11.612,-0.7492,1
-0.3257,-0.4236,-0.5247,-0.2301,-10.401,0.2773,1
-0.5748,-0.0874,-14.373,0.4229,0.7987,10.972,1
-0.1025,0.0304,-0.1536,-0.9211,0.4817,-0.5161,1
0.3203,-0.2195,-14.058,0.7184,61.208,0.8544,1
0.4189,-0.5354,-0.1984,-19.6,12.817,32.976,1
11.146,0.0362,-0.2574,-17.756,0.8273,-0.0332,1
10.438,0.3317,-0.3159,11.136,-0.8272,-28.37,1
-0.0837,-0.8015,0.1913,-0.1887,-0.6106,26.337,1
12.42,-0.106,-0.4097,-16.201,16.414,0.5729,1
0.1398,0.4816,-0.1442,12.229,-0.2042,-25.004,1
0.9641,-0.7592,-0.1805,13.322,-10.884,-18.121,1
0.0432,-0.9571,0.1377,-0.2474,-0.278,35.24,1
10.39,0.0878,-0.4872,-10.459,18.64,0.5939,1
0.4535,0.3266,-0.1711,0.8275,-0.2537,-27.444,1
10.079,-0.8009,-0.3288,16.185,-0.8709,-0.7078,1
0.0327,-10.758,0.1243,-0.9727,0.4041,38.806,1
0.755,0.3673,-0.4242,-13.277,20.715,0.404,1
10.142,0.1064,-0.275,10.334,0.1158,-37.009,1
0.0484,-0.6018,-0.0343,15.958,-0.4187,0.5686,1
17.403,-12.019,-0.4046,-11.75,0.5321,36.468,1
0.6584,0.3557,-0.4188,-0.9343,11.634,0.0466,1
0.9993,0.1466,-0.3123,13.455,0.5325,-29.631,1
0.3953,-0.509,-0.1629,14.762,-0.6697,0.6622,1
11.217,-13.361,-0.3456,-0.7273,0.6827,42.473,1
0.6997,0.2242,-0.3943,-12.545,16.779,0.1386,1
10.664,0.2415,-0.3508,13.976,-0.2965,-31.336,1
0.3068,-0.6203,-0.1119,17.162,-0.4258,0.9653,1
14.713,-15.62,-0.4403,-10.807,14.293,32.195,1
0.6292,0.6249,-0.2878,-11.792,15.33,-0.121,1
19.154,0.1315,-0.4487,18.161,10.155,-17.142,1
-0.0804,-0.4803,-0.0259,13.551,-14.937,15.335,1
24.931,-12.744,-0.9603,-30.777,15.577,18.666,1
0.3634,0.8928,-0.0882,0.0778,0.445,-0.4593,1
26.343,-0.4409,-0.3954,24.865,-16.769,-25.574,1
-0.5318,-0.4561,0.1078,10.997,-10.206,19.095,1
25.272,-13.549,-0.8687,-12.171,0.7217,15.185,1
0.0953,0.7849,-0.1177,-0.6662,0.8776,-11.163,1
39.768,-0.8224,0.2887,29.439,-15.382,-30.012,1
-0.2568,-0.5655,0.1879,0.7562,-14.86,18.425,1
21.685,-0.7135,-0.8711,0.0203,14.63,17.565,1
0.0567,0.9338,-0.1131,-0.1234,0.7592,-17.575,1
34.922,-0.8759,-0.0249,27.113,-18.256,-30.858,1
-0.4081,-0.6001,0.1388,0.5092,-0.6657,13.777,1
20.656,-0.6278,-0.7087,-15.029,15.729,20.313,1
0.1993,0.767,-0.1014,0.2855,0.2402,-18.586,1
24.021,-11.6,-0.5817,19.452,-22.227,-25.811,1
-0.6471,-0.3892,0.3105,0.2444,-0.5039,34.228,1
12.158,-0.2357,-0.7761,-11.252,20.714,10.109,1
0.4389,0.4587,-0.2859,10.696,0.1381,-30.851,1
23.342,-11.927,-0.1832,0.3262,10.855,-0.3322,1
-0.2721,-0.7267,0.3891,-0.1782,-0.1432,22.779,1
11.915,-0.3613,-0.6193,-12.476,23.046,0.6995,1
0.7728,0.1364,-0.2591,0.7868,-0.5583,-38.964,1
10.344,-0.9465,-0.2521,10.705,-13.237,-16.463,1
11.559,-12.016,0.0213,-0.7338,-0.1247,34.392,1
0.8811,0.6443,-0.3311,-15.068,22.136,14.493,1
0.5728,0.1897,-0.1459,11.862,-0.3528,-32.934,1
0.4118,-0.723,-0.1569,13.752,-0.3723,-0.5096,1
0.6632,-11.519,0.0215,-12.636,0.9617,41.428,1
0.7776,0.3403,-0.5157,-16.819,16.401,0.6133,1
16.89,0.1919,-0.4366,13.699,-0.5676,-33.251,1
-0.4997,-0.3135,0.2069,0.8833,-11.195,-0.1874,1
28.426,-15.056,-12.242,-0.3643,14.778,40.166,1
0.0647,0.8642,-0.0904,-0.4497,-0.2494,-0.3857,1
39.471,-14.489,-10.569,12.529,18.303,-12.677,1
-0.2913,-0.5036,0.0577,10.945,-24.016,-0.1642,1
26.285,-14.767,-16.718,0.0978,12.167,28.967,1
0.0173,0.9427,-0.1374,-0.6931,0.7425,0.0789,1
42.558,-13.82,-0.877,13.361,14.094,-18.844,1
-0.6675,-0.4936,0.1364,13.136,-0.6938,0.3587,1
17.113,-12.661,-0.6069,-0.3532,19.248,43.169,1
0.4741,0.8796,-0.307,-0.3587,0.0506,-0.314,1
27.221,-0.2531,-0.6573,11.079,-12.743,-28.429,1
-0.8,-0.3435,0.32,13.661,-12.672,0.6031,1
19.83,-0.9472,-0.8461,-10.115,0.7918,12.61,1
0.1278,0.6879,-0.1006,-0.524,-0.3818,-12.741,1
27.582,-0.8456,-0.5155,17.273,0.1422,-12.04,1
-0.3959,-0.5116,0.3151,0.9983,-0.6986,0.5952,1
23.766,-13.025,-0.9504,-12.664,19.11,20.208,1
0.1925,0.721,-0.1251,-0.0128,-0.0226,-0.9811,1
24.583,-14.602,-0.5341,16.222,-42.439,-27.242,1
-0.3613,-0.6314,0.2748,-0.505,0.2976,14.287,1
25.549,-0.7882,-0.747,-11.052,0.6538,21.32,1
0.0626,0.813,-0.1992,0.0299,0.4748,-15.892,1
28.877,-0.9394,-0.262,16.364,-31.764,-29.309,1
-0.4416,-0.6532,0.4106,0.8252,-0.8135,13.614,1
16.902,-10.06,-15.219,-0.4185,10.959,24.109,1
0.076,0.7566,-0.4893,-11.295,-14.775,-20.127,1
0.9564,-0.8189,-16.745,-0.5198,-0.8157,-23.843,1
-0.0066,-0.3243,-0.2275,0.8329,-0.5314,0.3346,1
10.167,-0.958,-12.896,0.3018,39.394,34.034,1
0.5211,13.512,-0.359,0.0074,-0.4901,-17.06,1
23.832,-10.461,-0.8463,16.315,-0.3554,-34.667,1
-0.1565,-0.8425,0.3086,-0.2183,0.0392,27.434,1
12.393,-0.2011,-0.8838,-0.5785,18.621,0.7832,1
0.3229,0.5239,-0.2426,-0.0129,0.2564,-26.842,1
20.021,-0.7006,-0.7478,12.865,-12.033,-22.13,1
-0.2635,-0.6218,0.3366,0.0139,0.9775,35.284,1
0.5529,-0.3578,-12.587,-11.831,36.858,0.9333,1
0.3231,0.3893,-0.299,0.4339,0.159,-26.191,1
13.876,-0.5287,-0.8856,0.6688,15.261,-22.893,1
-0.2568,-0.8008,0.2373,0.3602,0.9491,31.023,1
10.688,-0.3763,-10.355,-15.332,32.511,0.7239,1
0.3273,0.4546,-0.1506,0.425,-0.9702,-27.668,1
12.015,-0.7615,-0.695,16.284,-0.435,-23.967,1
0.1662,-10.107,0.0738,-0.597,0.1195,37.104,1
0.922,0.0346,-0.6206,-11.917,27.942,12.37,1
0.2779,0.4785,-0.2434,0.8069,-0.4311,-31.681,1
0.7219,-0.6531,-0.4056,0.6531,-0.2253,-13.722,1
0.7258,-0.8351,-0.3663,-0.0436,-0.0237,31.737,1
0.6847,0.1393,-0.702,-10.521,34.745,12.194,1
0.5265,0.3481,-0.3085,0.938,-0.3269,-35.548,1
0.1566,-0.3532,-0.0976,10.181,-0.1224,0.2097,1
15.728,-13.765,-10.427,-0.0226,-0.1188,39.742,1
0.415,0.761,-0.2277,-0.918,22.555,0.758,1
0.978,0.265,-0.5582,-15.677,26.653,14.649,1
0.5538,0.3049,-0.2948,0.9834,-0.509,-35.399,1
0.7663,-0.5645,-0.255,11.95,-0.6737,-0.8568,1
0.7743,-10.483,-0.2218,-0.173,-0.0943,36.288,1
0.8928,0.5106,-0.3622,-15.501,22.862,10.58,1
0.9068,0.2199,-0.3574,0.9698,0.293,-33.937,1
0.4528,-0.5705,-0.1904,12.785,-0.7828,-10.835,1
0.9263,-10.784,-0.3053,-0.3942,0.1687,40.571,1
0.4537,0.7443,-0.4024,-12.632,24.761,10.164,1
12.534,0.3661,-0.5098,14.635,-0.179,-33.491,1
0.1963,-0.6345,-0.0233,0.9291,-0.5935,-0.9021,1
14.558,-0.926,-0.5584,-0.8157,17.125,41.373,1
0.4418,0.977,-0.2514,-10.655,13.112,14.688,1
21.318,0.3776,-0.6382,12.196,17.23,-33.137,1
0.0987,-0.5189,-0.0731,17.116,-0.7337,0.3019,1
32.518,-0.8736,-0.7403,-12.672,23.326,48.095,1
0.3185,0.7934,-0.2506,-0.8758,0.4756,0.0649,1
27.237,0.2582,-0.7635,12.409,13.737,-21.434,1
-0.4139,-0.374,0.0864,12.275,-0.7272,0.3808,1
27.13,-12.078,-12.974,-0.6489,13.677,34.71,1
0.0862,0.9476,-0.2429,-0.8678,0.2955,-0.4062,1
32.418,-0.5856,-0.9088,13.15,0.8628,-22.299,1
-0.3297,-0.4521,0.108,11.178,-0.5711,0.9834,1
22.418,-0.9899,-11.264,-0.3164,-11.298,27.37,1
0.1202,0.7137,-0.1385,-0.7882,15.813,-13.944,1
25.776,-0.5495,-13.464,-0.1253,-30.948,-35.809,1
-0.3125,-0.5708,0.4625,16.961,0.1406,12.08,1
22.397,-10.06,-18.326,0.212,-0.6961,22.337,1
0.0275,0.886,-0.134,-0.5912,11.902,-15.855,1
24.411,-0.9614,-12.869,-0.0149,-11.206,-28.857,1
-0.125,-0.5779,0.1624,0.5979,0.1388,22.173,1
17.333,-0.5397,-10.737,-0.5553,0.4765,17.744,1
0.0979,0.6831,-0.2287,0.0936,10.723,-21.175,1
20.701,-0.847,-0.7697,10.755,-12.453,-31.72,1
-0.2526,-0.6273,0.3479,-0.1611,-0.2157,0.5527,1
30.221,-0.655,-0.7142,-17.158,30.174,21.096,1
0.2718,0.5185,-0.0797,0.0484,-21.996,-15.689,1
24.819,-0.5849,-0.6346,16.246,-11.016,-33.574,1
-0.0874,-0.8304,0.2724,0.1601,-0.3182,18.995,1
16.935,-0.51,-0.9074,-0.6259,10.495,16.564,1
0.063,0.7633,-0.0779,-0.1988,0.3348,-14.801,1
24.98,-0.8339,-0.8743,0.8451,-0.3325,-32.701,1
-0.4124,-0.4702,0.2622,-0.1114,0.0504,23.951,1
14.574,-0.555,-0.9618,-0.5476,0.9805,21.546,1
0.3716,0.5522,-0.2611,0.1685,0.2528,-20.409,1
0.9364,-0.9491,-0.5743,0.8235,-0.1669,-26.111,1
-0.091,-0.7496,0.1579,-0.5086,0.7623,24.113,1
0.4466,-0.4042,-12.754,-0.883,42.039,11.788,1
0.2348,0.4417,-0.2475,-0.6101,0.1965,-25.538,1
0.9075,-10.367,-12.192,0.1441,-0.8848,-26.092,1
0.0225,-0.5969,0.2903,0.5646,0.2649,30.058,1
0.8371,-0.4419,-11.988,-0.3006,26.128,13.539,1
0.0732,0.7373,-0.1082,-0.9098,0.5181,-23.934,1
14.875,-10.752,-12.488,-0.0473,0.6569,-32.565,1
21.438,-10.408,-13.399,-0.1098,0.3986,38.093,1
0.245,0.6234,-0.3567,-0.9784,14.452,-0.0638,1
11.543,0.1525,-0.603,0.9646,0.1007,-26.264,1
0.5269,-0.4063,-0.2442,15.378,-12.162,0.2669,1
0.564,-14.76,-0.5425,0.5712,-0.5321,42.525,1
0.7784,0.5745,-0.4059,-10.548,20.674,0.6097,1
0.9932,0.2172,-0.6847,0.8632,0.5652,-38.912,1
0.2561,-0.5628,-0.0621,0.7346,-0.3027,-0.0933,1
0.9597,-0.9393,-0.6575,0.7808,0.2965,46.544,1
0.6677,0.5758,-0.4645,-14.645,16.606,11.803,1
0.8934,0.1836,-0.5341,0.9142,-0.5421,-36.468,1
0.4077,-0.4888,-0.2063,0.3039,0.5059,-0.6648,1
0.5726,-12.113,-0.3785,0.9444,-0.019,35.192,1
0.6962,0.5694,-0.2635,-18.679,16.147,13.931,1
11.492,0.2375,-0.537,0.62,0.4515,-38.472,1
0.4701,-0.6534,-0.2053,17.316,12.744,-0.2162,1
0.6405,-10.701,-0.0999,-0.9345,-0.438,37.613,1
14.541,-0.2995,-0.4629,-0.7268,14.451,0.2019,1
0.5899,0.1967,-0.2684,0.6336,-0.7424,-39.809,1
14.529,-0.7427,-0.2433,14.492,-11.951,-10.058,1
0.2615,-0.8218,0.0813,-0.2373,-0.0163,37.864,1
13.231,-0.1071,-0.6991,-21.035,23.143,0.9842,1
0.9801,0.2964,-0.5287,0.687,-0.5029,-30.232,1
0.5921,-0.4128,-0.4575,-0.3858,14.21,-19.694,1
0.4551,-0.9772,-0.1958,11.337,0.6458,29.052,1
10.137,-0.0461,-10.007,-12.298,20.015,19.876,1
0.2925,0.424,-0.2427,0.1612,-0.0991,-31.535,1
13.472,-0.6416,-10.206,0.069,0.4422,-27.812,1
0.0364,-0.7255,0.1718,0.796,0.041,19.478,1
13.097,-0.4317,-15.309,-0.7184,15.323,26.768,1
0.1091,0.6509,-0.0854,-0.4255,0.711,-25.105,1
23.084,-0.7961,-14.215,0.0694,-0.1028,-34.008,1
0.1494,-0.7702,0.0485,11.775,-0.106,24.392,1
11.91,-0.4092,-12.659,-15.811,19.923,15.433,1
0.1382,0.5358,-0.1707,-0.07,12.161,-20.854,1
32.09,-0.3891,-0.3564,18.7,13.842,-31.078,1
-0.2,-0.7618,0.2182,0.9547,-0.944,27.044,1
20.899,-0.2633,-0.9853,-12.65,0.6944,13.568,1
-0.0074,0.5079,-0.1034,-0.5753,0.9423,-15.096,1
26.324,-0.5721,-0.9875,12.406,-0.7748,-31.152,1
-0.3589,-0.4471,0.1276,13.886,0.4983,17.507,1
18.703,-0.7474,-10.099,-10.403,-0.128,20.317,1
0.1152,0.698,-0.1252,-0.4434,0.5493,-18.944,1
26.158,-0.6838,-0.8439,10.433,0.5076,-26.429,1
-0.0964,-0.5935,0.0582,0.8854,-0.688,10.793,1
22.763,-0.5334,-12.136,-0.5513,-0.5497,27.052,1
-0.0585,0.8501,-0.1079,-0.6962,21.063,-0.5944,1
26.897,-0.3663,-0.7481,16.193,-0.496,-29.818,1
-0.1064,-0.4465,0.0979,0.9709,-0.5156,0.8332,1
20.999,-0.9943,-0.9075,-0.0049,-0.0025,39.681,1
0.4692,0.6738,-0.4171,-0.6253,10.555,0.122,1
16.213,0.2706,-0.648,12.464,0.2591,-27.795,1
0.1279,-0.638,0.0052,0.6632,10.526,0.0691,1
0.0882,0.6369,-0.3894,-15.01,0.2298,-0.2164,1
0.3767,0.5177,-0.3041,-0.0049,0.7335,-21.383,1
18.514,-0.7473,-0.7191,0.367,-19.922,-35.666,1
-0.0111,-0.5441,0.1811,0.7688,-0.6883,15.865,1
19.949,-13.382,-12.278,-0.052,0.0518,45.1,1
0.525,0.2581,-0.5697,0.4614,0.756,0.1772,1
10.617,0.0426,-0.6076,0.5928,-0.4856,-29.401,1
0.8554,-0.4595,-0.5021,-0.8194,-0.2065,-28.727,1
0.2351,-0.2197,-0.0994,11.798,0.3014,20.76,1
12.991,-10.829,-10.418,0.6302,-17.175,37.629,1
0.9464,0.1624,-0.6588,-10.528,17.499,0.2714,1
0.5858,0.0453,-0.4092,0.3788,0.6957,-40.724,1
15.445,-0.6019,-0.7669,0.6551,-0.8393,-12.701,1
0.1553,-0.6434,0.2653,0.4024,0.721,36.336,1
11.587,-0.5504,-13.735,0.0803,19.492,27.792,1
0.2792,0.4792,-0.1907,-0.0444,0.4798,-25.996,1
23.073,-0.4401,-0.8124,0.0051,0.0626,-44.104,1
0.3757,-0.2292,-0.1859,0.8115,0.6282,10.931,1
10.366,-11.63,-0.2784,0.3704,0.8657,47.563,1
11.928,-0.3304,-11.284,-0.3843,0.2163,22.009,1
0.1582,0.5251,-0.12,0.0381,18.451,-28.275,1
25.491,-0.6093,-0.8499,-0.4142,-13.329,-51.046,1
0.1073,-0.3318,0.0573,0.6731,0.5137,0.2097,1
0.7873,-0.9871,-0.2514,0.7953,0.7202,55.529,1
13.226,-0.3496,-12.066,-0.1233,0.3061,19.106,1
0.1208,0.3755,-0.1296,-0.0031,0.5175,-22.038,1
22.52,-0.7399,-10.31,-10.528,0.0139,-43.926,1
0.0271,-0.4568,0.0701,0.3749,-0.1623,-0.3392,1
12.229,-0.8143,-0.5518,0.3051,0.9724,46.644,1
10.46,0.3007,-0.6908,-0.6556,0.5948,19.344,1
0.827,0.2181,-0.546,0.2332,0.4079,-42.769,1
10.014,-0.7252,-0.0345,11.921,-0.9333,-0.5451,1
0.518,-11.359,-0.05,-0.1563,-0.1934,46.989,1
14.316,-0.0609,-10.732,-0.9264,0.507,0.9609,1
0.4914,0.3552,-0.1474,0.903,-0.506,-40.245,1
22.641,-0.7469,-0.636,-13.363,-0.4689,-42.257,1
0.0619,-0.5205,0.0196,24.963,-0.3123,26.506,1
16.185,-11.902,-0.829,-0.1993,-0.22,40.028,1
0.4449,0.4926,-0.5082,-0.2136,20.493,-0.4033,1
13.006,-0.1641,-0.8358,-0.34,0.6004,-42.915,1
10.859,-0.5302,-0.2734,0.1507,-12.877,-24.699,1
0.1811,-0.7044,0.0938,15.953,0.4525,21.512,1
13.867,-0.6654,-13.196,-0.1622,0.5784,32.054,1
0.4166,0.5019,-0.4191,-0.0545,0.9868,-10.633,1
15.78,-0.2921,-0.7935,-0.2574,-0.5518,-34.104,1
0.9723,-0.4807,-0.4713,0.2689,0.5107,-0.9476,1
0.1553,-0.6379,-0.0517,0.0404,-0.0537,24.312,1
11.918,-0.2486,-0.9573,-0.7957,10.458,23.791,1
0.2753,0.4068,-0.3705,0.1551,0.7796,-0.9329,1
22.778,-0.1162,-10.238,0.4754,-20.326,-31.892,1
0.2448,-0.4797,-0.0338,11.894,0.9777,-0.3364,1
14.46,-0.8403,-11.082,0.7778,0.4233,33.548,1
0.726,0.4045,-0.6167,-0.3256,0.6055,0.4421,1
22.654,-0.2164,-13.727,16.054,0.3031,-44.122,1
0.4259,-0.6022,0.0276,13.762,0.1207,-0.5819,1
10.51,-0.0251,-0.5275,0.5136,-0.3602,-38.879,1
10.265,-0.5199,-0.4284,-0.3736,-0.5658,-18.738,1
0.3464,-0.8454,0.0839,0.9982,0.3161,34.318,1
11.682,-0.4533,-11.711,0.0321,0.8368,26.099,1
0.396,0.4185,-0.3852,0.1203,0.0706,-27.338,1
23.638,-0.8267,-10.745,-0.8955,-18.552,-33.148,1
0.3008,-0.3608,-0.1265,11.321,-16.528,0.6387,1
17.511,-0.9121,-12.336,0.5147,12.089,43.768,1
0.564,0.3226,-0.4496,-0.9172,0.88,-0.0284,1
0.5119,0.1513,-0.4105,-0.849,0.3132,-26.397,1
12.077,-0.4846,-0.8321,13.555,0.1666,-26.321,1
0.3623,-10.537,-0.0087,12.906,0.7387,30.842,1
11.491,-0.0786,-10.365,-0.6458,18.947,21.444,1
0.5572,0.2621,-0.3503,0.0417,0.9602,-21.577,1
25.861,-0.8092,-0.2252,0.6292,-0.7308,-29.918,1
0.4279,-0.4847,0.0248,0.3948,-0.6698,15.585,1
11.602,-0.8913,-0.1887,-10.52,-0.2312,47.453,1
0.9797,0.1671,-0.5303,-0.3121,12.534,-0.1652,1
0.6399,-0.0532,-0.4175,0.5662,-12.727,-33.283,1
0.9265,-0.4143,-0.5473,-13.116,0.4554,-16.907,1
0.2429,-0.3631,-0.0911,0.8073,-0.1999,21.432,1
22.236,-10.52,-0.9601,-16.213,-17.191,39.4,1
0.6694,0.4965,-0.3272,-10.421,12.237,0.4578,1
17.116,-0.1037,-0.8384,10.923,-18.129,-31.056,1
0.4846,-0.4992,-0.2947,0.9645,-0.179,0.3577,1
0.8117,-12.861,-0.2754,-10.969,10.533,50.536,1
0.8526,0.4333,-0.3209,-21.034,12.26,16.465,1
25.977,0.4478,-11.094,0.1205,-15.292,-23.149,1
0.5534,-0.5537,-0.5129,12.512,-0.5831,-19.672,1
0.7465,-11.93,-0.2971,0.7837,10.349,47.936,1
0.9693,0.3918,-0.8,-0.982,19.534,0.6955,1
0.7122,0.1004,-0.3162,10.91,-10.848,-37.919,1
0.6115,-0.3979,-0.6882,0.1956,22.407,-14.126,1
0.6253,-11.297,-0.1154,0.342,0.9663,44.952,1
0.8458,0.1486,-0.7129,-12.737,30.782,0.3597,1
0.2819,0.3456,-0.2558,-0.0323,-0.2623,-25.969,1
0.9408,-0.5698,-0.5366,0.8101,-18.636,-28.187,1
0.4051,-0.8072,0.1468,0.6029,0.642,28.116,1
10.333,0.1031,-0.93,-0.8691,28.226,13.471,1
0.0952,0.6516,-0.3068,0.2537,-0.3588,-18.531,1
27.822,-0.3792,-0.9465,0.2469,-29.092,-33.041,1
-0.1504,-0.6442,0.2463,10.664,-0.0818,15.651,1
14.764,-0.3418,-11.891,-0.2268,21.412,23.569,1
0.1968,0.7579,-0.4199,-0.3835,0.9991,-0.828,1
25.032,0.1245,-0.869,13.855,-0.6435,-30.244,1
0.1284,-0.628,0.1152,0.3192,-0.9388,-15.383,1
15.455,-0.3267,-11.048,0.1483,15.008,42.394,1
0.7808,13.669,-0.5129,-11.485,0.8097,12.951,1
27.391,-0.4709,-14.265,0.9148,-12.767,-39.263,1
0.1124,-0.4043,0.1092,0.984,0.4489,0.1442,1
23.118,-0.7701,-12.301,-13.837,15.53,40.486,1
0.4888,11.302,-0.3158,-0.9012,12.76,0.3167,1
23.276,0.2985,-0.7145,13.031,0.0609,-27.868,1
13.723,-0.9111,-0.5073,-0.5688,-0.4946,48.513,1
24.28,-0.2742,-0.9777,0.6225,0.5377,-30.265,1
0.1621,-0.3679,-0.058,11.465,0.2487,19.499,1
18.558,-0.9693,-10.825,-0.2855,-0.5295,30.443,1
0.4848,0.2839,-0.3791,-11.049,22.775,-0.1807,1
11.599,0.4035,-0.5627,12.144,-0.3733,-23.596,1
0.6477,-0.484,-0.085,10.42,-26.286,-0.1831,1
12.533,-0.9445,-0.4462,0.2161,0.5972,43.624,1
0.7168,0.393,-0.576,-13.636,16.155,0.6793,1
0.9239,0.2639,-0.3956,12.508,0.2604,-30.713,1
0.556,-0.3911,-0.2398,11.481,-0.0897,-0.8484,1
0.5425,-10.827,-0.2402,0.2647,0.3693,43.162,1
0.8386,0.1996,-0.6035,-0.9643,16.462,0.5536,1
0.4119,0.3449,-0.2182,0.5857,-0.2394,-33.828,1
10.98,-0.69,-0.3567,0.8308,-0.4751,-10.414,1
0.3652,-0.8037,0.0069,-0.1591,0.2031,32.86,1
0.9172,0.2672,-0.6432,-13.661,11.665,0.5786,1
0.8251,0.2167,-0.2926,0.9323,-0.3708,-32.196,1
0.6065,-0.413,-0.1148,12.925,-0.5119,-0.152,1
0.0201,-0.8645,0.1658,0.5476,-0.2213,36.222,1
10.912,0.1115,-0.7368,-15.194,0.7353,0.38,1
0.4207,0.3509,-0.2089,0.8135,-0.3364,-29.704,1
0.4782,-0.7167,-0.1062,11.348,-0.8226,-0.9077,1
0.6428,-10.334,-0.2284,0.2784,-0.034,39.544,1
0.7719,0.2452,-0.6425,-10.98,11.239,0.2737,1
0.5916,0.0873,-0.3768,0.6395,-0.1741,-32.264,1
0.8709,-0.4768,-0.1901,11.019,-0.082,-0.9294,1
0.5914,-12.288,-0.3754,0.537,-0.012,40.716,1
0.9077,-0.0663,-0.5337,-0.9213,18.419,0.1961,1
0.3073,0.3698,-0.4102,-0.1378,-0.1543,-30.986,1
15.577,-0.489,-0.6309,0.5038,-14.595,-23.048,1
0.2103,-0.9904,0.1811,15.054,-0.2088,38.883,1
0.8358,0.2694,-0.7511,-12.122,25.233,10.714,1
0.4203,0.2799,-0.2186,-0.0222,0.0643,-31.153,1
16.695,-0.8119,-0.6235,0.7606,-11.548,-23.635,1
0.0782,-0.7344,0.1365,11.832,-0.1271,27.0,1
15.371,-0.4712,-11.641,-0.5165,10.981,19.924,1
0.3783,0.6881,-0.2385,-0.1559,-0.1193,-30.036,1
17.496,-0.5282,-0.8538,0.3452,-10.098,-38.397,1
-0.0913,-0.527,0.0867,18.993,0.192,16.669,1
18.745,-0.939,-12.811,0.3165,-14.185,29.322,1
0.3467,0.5987,-0.4417,-0.2437,11.895,-0.4001,1
13.299,0.276,-0.7037,0.9297,30.471,-33.835,1
0.0601,-0.6864,0.1391,12.865,-0.5434,-0.8671,1
12.595,-0.8196,-0.6017,0.3566,0.3146,36.99,1
0.7046,0.1158,-0.6249,-0.4484,15.92,0.9118,1
0.6254,0.2787,-0.3517,0.8456,-0.3358,-35.264,1
12.411,-0.7559,-0.5992,0.0175,-0.5324,-33.224,1
0.0834,-0.6491,0.1093,0.9148,-0.2894,14.408,1
10.997,-0.2609,-12.539,0.2751,20.174,12.171,1
0.1239,0.4646,-0.2878,-0.1839,0.696,-16.529,1
24.161,-0.3458,-0.5584,13.352,-0.3315,-33.352,1
-0.1857,-0.6886,0.1451,12.868,-0.6239,0.2485,1
24.005,-10.373,-13.425,-0.4451,-14.727,29.826,1
0.0888,-0.3854,-0.0145,17.777,0.3183,0.2587,1
22.914,-0.9594,-16.662,0.3149,-16.578,30.263,1
0.1397,0.8372,-0.308,-0.6992,15.546,0.5556,1
18.326,0.3208,-10.177,0.7683,-25.884,-23.034,1
-0.1674,-0.3908,0.2193,10.968,-0.7842,-11.357,1
0.9495,-0.9008,-0.5472,0.9351,16.224,49.409,1
0.8561,0.6824,-0.4877,-12.371,24.897,13.301,1
0.8851,0.3565,-0.4403,10.633,0.7692,-34.789,1
0.0826,-0.2782,-0.0368,0.3723,-14.946,-0.4819,1
0.5625,-0.9997,-0.3176,20.079,0.9202,48.949,1
0.5311,0.6319,-0.4983,-0.981,19.944,12.259,1
0.7192,0.0773,-0.4436,0.1934,-0.4771,-37.312,1
0.6399,-0.7423,-0.5085,13.296,-13.192,-15.799,1
13.461,-0.9826,-0.5703,-0.4432,-0.0246,34.995,1
0.8029,0.3834,-0.5619,-10.106,19.58,14.499,1
12.998,0.4158,-0.7897,0.7909,-0.6959,-27.312,1
0.5943,-0.5011,-0.3416,10.12,-0.2996,-23.321,1
0.5612,-0.8751,-0.4454,0.4642,-0.3793,33.747,1
0.7677,0.4127,-0.6254,-0.4435,22.851,15.109,1
0.7543,0.2019,-0.4887,0.5705,-13.911,-31.345,1
0.3725,-0.642,-0.2288,0.2887,0.4155,-21.398,1
0.7682,-10.606,-0.221,-0.413,0.4068,35.229,1
0.8502,0.5193,-0.5224,-13.854,20.235,13.23,1
0.5087,0.3066,-0.3105,0.6382,-0.3178,-23.608,1
0.5008,-0.5616,-0.2904,15.215,0.6849,-14.894,1
-0.05,-0.7317,0.2284,-0.7555,0.0703,31.935,1
0.5719,-0.0646,-0.9243,-12.975,40.58,0.3931,1
0.5575,0.2303,-0.3445,0.453,-0.7367,-32.952,1
0.535,-0.4159,-0.4699,13.811,0.7819,-12.064,1
0.2228,-0.9057,-0.0443,-0.4335,0.1204,35.602,1
0.7339,0.0775,-0.6636,-11.203,39.882,11.743,1
0.6372,0.3086,-0.4136,0.4781,-22.105,-32.355,1
0.9313,-0.658,-0.8527,0.0018,0.6419,-30.34,1
0.2522,-10.175,0.1196,0.035,0.1595,33.71,1
0.7191,0.4222,-0.7915,-11.823,25.615,0.6183,1
0.1593,0.3881,-0.2159,10.159,-0.2611,-25.826,1
0.7047,-0.2859,-0.3934,10.521,-0.4824,-11.83,1
0.6648,-10.392,-0.3254,-0.3924,0.6027,41.07,1
0.6568,0.5802,-0.4884,-11.47,21.465,10.734,1
0.7447,0.1938,-0.4332,0.8471,-10.189,-27.334,1
0.8082,-0.3807,-0.5077,12.447,-0.6547,-11.189,1
0.4048,-0.7935,-0.2739,-0.1251,0.0289,26.161,1
0.7094,0.2511,-0.6495,-11.591,34.353,14.428,1
0.2901,0.4938,-0.3111,0.3826,-0.8268,-31.815,1
0.7775,-0.5391,-0.6328,12.946,19.797,-0.8403,1
0.618,-0.8951,-0.3564,-10.846,-0.8263,23.332,1
0.9114,0.4434,-0.5903,-0.846,23.149,16.992,1
10.869,0.3485,-0.6044,0.8008,-0.3432,-38.059,1
0.4362,-0.4208,-0.1678,10.048,0.5222,-0.7986,1
0.7113,-11.175,-0.3406,0.4901,0.3299,41.347,1
0.5997,0.3335,-0.5621,-12.7,30.754,10.814,1
11.75,0.2679,-0.6965,0.3391,-0.5893,-31.633,1
0.2991,-0.3879,-0.3354,0.6016,0.3052,-10.077,1
0.6093,-11.263,-0.2442,0.3012,0.0915,35.495,1
0.7299,0.4781,-0.5711,-11.22,37.843,12.641,1
-0.5097,-0.5593,0.4872,16.603,-10.417,0.7224,1
12.578,-0.9525,-14.548,-0.0055,0.1734,10.031,1
0.0022,0.6721,-0.1689,-0.9678,10.499,-12.495,1
22.374,-10.361,-11.831,13.837,-0.6554,-32.846,1
-0.5084,-0.2694,0.261,0.0389,-0.0167,17.064,1
13.691,-10.391,-13.29,-0.7838,21.371,0.8636,1
0.0235,0.7957,-0.2158,-0.4632,11.22,-11.688,1
20.8,-10.65,-0.9471,0.505,-10.777,-24.886,1
-0.4168,-0.4368,0.2835,0.7912,0.4075,23.042,1
20.204,-0.8648,-0.9975,-14.873,17.149,0.3285,1
0.0151,0.7258,-0.1395,-0.1482,0.3834,-17.207,1
11.57,-0.8467,-0.531,14.842,0.172,-11.314,1
-0.391,-0.5084,0.1061,0.128,0.0732,26.252,1
0.7749,0.2318,-0.6304,-10.1,0.1116,-0.4831,1
0.2853,0.3748,-0.3247,-0.005,0.0778,-20.518,1
16.602,-0.6574,-0.9314,0.8723,0.1216,-21.01,1
-0.2543,-0.621,0.2084,0.0487,0.5109,31.967,1
10.018,0.1718,-0.746,-10.272,21.812,0.424,1
0.3515,0.2819,-0.3292,0.0756,0.2556,-17.745,1
0.7776,-0.3409,-0.6432,10.881,-0.7214,-15.437,1
0.1674,-0.736,0.0834,0.025,-0.3375,27.951,1
0.7275,-0.5054,-13.766,-14.305,36.17,0.4682,1
0.0336,0.591,-0.2782,0.7554,-0.3532,-27.27,1
13.965,-0.6112,-10.349,0.5103,11.098,-15.554,1
0.4109,-10.734,-0.1942,0.8584,0.5664,42.005,1
0.6964,0.254,-0.6424,-0.9763,24.911,11.575,1
0.4645,0.3874,-0.3609,0.2726,-10.72,-26.836,1
0.9236,-0.6968,-0.5825,10.591,0.4855,-20.506,1
0.23,-10.121,-0.1497,0.0152,0.6187,36.746,1
0.7781,-0.0213,-10.334,-0.7452,16.366,0.7284,1
0.2056,0.3147,-0.2816,-0.3972,-0.3839,-34.463,1
12.911,-0.9041,-0.9645,-0.0097,-0.3717,-12.966,1
0.14,-0.755,0.1056,0.632,0.5552,29.597,1
0.8637,0.1009,-0.7647,-16.107,24.025,17.152,1
0.7096,0.306,-0.391,0.0692,0.1241,-30.518,1
11.678,-0.6302,-0.6262,17.59,-0.3083,-18.162,1
0.3861,-0.8806,0.0308,-0.3386,11.933,30.451,1
0.7463,0.7666,-0.3831,-16.582,29.885,0.8985,1
0.5906,0.3287,-0.2993,0.9251,-0.1107,-32.999,1
-0.01,-0.3435,-0.094,16.299,-0.673,0.1336,1
12.329,-10.679,-0.5498,-0.7379,11.989,38.686,1
0.5549,0.5911,-0.4558,-0.9855,0.9805,0.3303,1
10.289,0.3327,-0.6098,15.707,-17.0,-17.402,1
0.2852,-0.5726,-0.3085,10.038,-0.4952,-0.768,1
10.098,-0.886,-0.5551,0.7062,20.436,41.859,1
0.5774,0.6523,-0.5112,-17.219,15.06,0.1037,1
13.765,-0.0496,-0.7834,0.8242,-0.5836,-25.005,1
0.4337,-0.5366,-0.3731,18.466,-0.0913,-0.6242,1
0.5814,-0.4688,-0.0164,-0.6427,20.104,57.27,1
0.3389,0.7883,-0.4046,-18.397,40.914,0.6657,1
14.017,0.4311,-0.8989,11.379,-0.7499,-26.86,1
0.3449,-0.2151,-0.1458,0.8403,0.8994,-0.6809,1
0.4182,-10.015,-0.339,0.8545,-0.1396,47.33,1
0.6439,0.8801,-0.5895,-0.6938,51.784,10.089,1
0.1927,0.5193,-0.211,-0.7939,0.3735,-15.744,1
18.703,-0.9729,-0.9949,0.6472,-18.014,-33.46,1
-0.2908,-0.5405,0.3404,10.158,-0.0964,26.758,1
13.808,-0.6947,-13.972,-0.5914,11.444,15.58,1
0.0815,0.5851,-0.1386,-0.1954,0.6704,-19.369,1
19.017,-0.9208,-0.9738,0.367,-0.9717,-29.209,1
-0.4476,-0.6864,0.4364,-0.3781,0.0982,21.25,1
17.189,-0.619,-12.889,-0.6057,0.8984,0.824,1
0.2868,0.4893,-0.2877,-0.5356,0.6679,-29.154,1
12.29,-0.798,-0.5124,12.239,-11.251,-24.914,1
0.0289,-0.8819,0.1612,0.1839,-0.1301,36.524,1
13.589,0.3059,-0.7448,-0.9357,17.594,0.7583,1
0.3901,0.3598,-0.2114,0.6242,0.6963,-32.502,1
10.87,-0.6716,-0.2654,0.9715,0.4292,-0.1606,1
0.0993,-0.8054,0.112,-0.2636,-0.205,34.83,1
10.841,-0.2092,-0.6902,-14.882,17.227,0.9986,1
0.6695,0.4477,-0.3255,0.6675,11.028,-42.11,1
19.191,-0.737,-0.6037,0.7589,-0.7141,-14.6,1
0.1288,-0.7186,0.1636,0.4466,-0.0648,36.658,1
10.694,-0.5013,-11.622,-0.9634,22.93,17.971,1
0.1785,0.6329,-0.1764,-0.272,0.8523,-33.259,1
14.289,-0.771,-0.998,0.1967,-0.1949,-21.421,1
-0.0775,-0.7165,0.1937,13.704,-0.2122,31.105,1
0.8377,-0.0194,-0.7504,-11.342,29.855,0.9191,1
0.4231,0.3392,-0.3084,0.2454,-0.3363,-30.118,1
10.364,-0.8677,-0.7306,12.636,0.2621,-24.17,1
0.3807,-0.8629,-0.0495,0.1392,0.4205,30.05,1
0.9119,-0.1046,-0.7385,-19.092,28.133,10.742,1
0.1181,0.6192,-0.1224,0.5593,0.0478,-26.81,1
11.931,-0.8138,-0.586,0.6861,-0.2777,-16.643,1
0.0689,-0.805,0.1247,0.2324,-0.1046,28.226,1
11.13,-0.0189,-0.9324,-14.059,22.864,0.8347,1
0.7095,0.2107,-0.4117,0.5529,-0.1726,-29.746,1
0.841,-0.5448,-0.4807,13.665,-0.7265,-0.6949,1
0.0971,-10.573,0.1354,0.4635,0.4944,28.303,1
11.157,0.1003,-0.8034,-16.436,28.674,12.205,1
0.4651,0.4513,-0.3437,0.3763,-0.43,-42.483,1
0.5557,-0.821,-0.2566,0.5396,-0.121,-23.348,1
0.4008,-0.8606,-0.0883,-0.2989,0.3831,32.307,1
0.7617,0.3062,-0.5521,-13.195,12.543,14.225,1
0.8603,0.6266,-0.2865,13.32,-22.121,-34.264,1
0.6715,-0.8848,-0.7511,0.087,18.946,-26.543,1
0.5937,-11.326,-0.2292,0.4821,0.667,37.182,1
14.191,0.0004,-10.827,-15.092,18.917,19.249,1
0.5722,0.3174,-0.374,0.448,-0.3952,-36.216,1
0.8137,-0.6992,-0.0905,13.889,-23.096,-15.758,1
0.0683,-0.8434,0.1273,0.7782,-0.2646,34.062,1
11.812,0.12,-0.8505,-15.498,22.485,13.997,1
0.773,0.2488,-0.4256,10.104,-0.3906,-34.546,1
0.1906,-0.714,-0.1084,16.264,-16.449,-23.944,1
17.455,-10.486,-0.7718,-0.804,0.8744,37.712,1
0.5027,0.9035,-0.3989,-16.014,21.725,12.814,1
0.6766,0.3044,-0.3694,16.533,-0.0147,-39.144,1
0.497,-0.3067,-0.2511,15.524,-0.2563,-0.0773,1
0.757,-0.3269,-0.4605,0.3076,12.758,-19.352,1
0.3562,-0.8441,-0.0405,0.0297,0.0192,37.378,1
10.191,0.0796,-0.7765,-13.595,22.183,13.186,1
0.121,0.6263,-0.2846,-0.1611,0.7602,-23.619,1
21.084,-0.2869,-10.875,-0.1024,-0.7406,-33.98,1
0.0002,-0.6367,0.1151,11.373,0.5077,23.276,1
23.158,-10.579,-14.383,-0.3363,-13.573,37.028,1
0.3885,0.5952,-0.3336,-11.219,13.32,-0.0224,1
19.517,-0.2069,-13.929,0.1027,0.7385,-40.3,1
0.3442,-0.3169,-0.1936,0.5977,-0.2156,-0.122,1
16.407,-11.817,-0.3933,0.0325,17.849,50.819,1
0.9405,0.4155,-0.4805,-14.823,0.6844,14.81,1
0.6638,0.1657,-0.3992,0.5231,-0.055,-34.116,1
0.7909,-0.5585,-0.3347,-0.5781,0.2369,-15.066,1
0.6295,-11.067,-0.1421,0.753,0.0006,39.623,1
10.795,0.0582,-0.7614,-0.6637,0.9954,16.595,1
0.413,0.1689,-0.3064,-0.7449,0.5269,-29.425,1
23.065,-0.7446,-11.4,0.1423,-0.3073,-34.411,1
0.06,-0.632,0.1731,0.6424,0.1344,25.532,1
16.008,-0.6452,-10.218,-0.1777,0.3447,26.342,1
0.3702,0.4985,-0.3488,-14.669,11.846,-0.8989,1
24.201,-0.2782,-11.665,10.7,0.2228,-41.28,1
-0.005,-0.4276,0.206,0.4757,-0.3463,0.7608,1
15.649,-10.428,-0.6614,0.0833,-0.7803,40.409,1
0.5503,0.371,-0.4768,-14.324,10.231,21.411,1
10.827,0.0225,-0.8647,-0.3758,-0.1302,-26.849,1
0.2591,-0.4678,-0.2616,13.994,-0.1773,-0.8048,1
0.3196,-0.9066,-0.008,0.0652,0.4542,39.03,1
11.242,-0.1272,-0.8654,-16.151,15.655,22.503,1
0.3114,0.5168,-0.2738,-0.1965,17.384,-31.465,1
21.706,-0.498,-0.9333,0.9335,-15.642,-29.779,1
0.1111,-0.4051,0.0831,10.475,-0.2338,23.205,1
14.419,-0.5797,-11.513,-0.0677,-15.042,30.585,1
0.5601,0.5046,-0.4437,-0.6122,0.9867,-0.8384,1
18.492,-0.0833,-10.484,0.3789,0.4872,-33.459,1
0.2848,-0.3557,-0.2561,0.5376,12.981,0.2173,1
0.4442,-0.877,-0.1028,10.029,0.7491,50.385,1
0.9306,0.0118,-0.8831,-10.604,20.188,11.198,1
0.3921,0.2184,-0.3726,0.1932,0.3394,-28.578,1
17.067,-0.6656,-0.9077,-0.8092,-22.653,-25.838,1
0.0189,-0.4117,0.0366,13.459,-0.8261,17.044,1
15.999,-10.851,-13.622,-0.2464,-0.0649,24.601,1
0.2602,0.5936,-0.3211,-0.7039,16.855,-0.675,1
21.352,-0.2615,-13.731,0.2602,-10.469,-30.615,1
0.3791,-0.3279,-0.1632,0.7589,-0.2572,-0.0808,1
0.7745,-0.8091,-0.4339,12.849,-0.1117,45.477,1
10.463,0.1252,-0.9376,-0.7572,0.7648,15.238,1
0.3557,0.3449,-0.3326,0.4638,-0.1052,-26.035,1
10.788,-0.496,-0.963,-0.1339,0.2154,-22.136,1
0.1757,-0.6753,0.0665,0.9727,-0.358,18.498,1
0.887,-0.3738,-11.573,-0.4096,22.48,23.584,1
0.1439,0.5423,-0.2731,-0.353,0.7217,-21.392,1
18.736,-0.8841,-12.641,-0.332,-17.846,-28.411,1
0.1461,-0.3769,0.0603,11.8,-0.3329,10.212,1
0.6748,0.4398,-0.6124,-10.912,27.05,11.958,1
0.7635,0.3584,-0.5259,0.1588,-0.4999,-24.232,1
0.7895,-0.6591,-0.5518,13.453,28.089,-13.153,1
0.0672,-0.8975,0.0031,-0.0265,-0.2758,28.911,1
0.4904,-0.0522,-0.9547,-13.271,44.526,0.7433,1
0.1604,0.4336,-0.3217,-0.2476,0.6125,-26.979,1
0.9014,-0.5729,-0.7611,0.6688,0.9968,-32.289,1
0.0441,-0.6959,0.2861,-0.3293,0.3517,28.501,1
0.9837,-0.7133,-12.473,-0.7792,31.152,14.199,1
0.062,0.6799,-0.1627,-0.2921,0.7564,-13.735,1
13.79,-11.33,-11.914,-15.432,-17.45,-31.602,1
-0.1679,-0.6655,0.3461,0.4779,-0.2462,0.876,1
14.884,-0.3223,-14.476,0.4173,0.6596,22.313,1
0.0767,0.6055,-0.1546,-0.2336,0.254,-0.9934,1
16.642,-0.6531,-0.8667,0.3139,-0.3874,-36.258,1
-0.5288,-0.4701,0.2435,0.9326,-0.5358,0.3282,1
17.104,-0.5774,-13.371,-0.543,0.6129,18.277,1
-0.0316,0.6857,-0.1219,-0.5621,0.3949,-0.7582,1
25.422,-0.5456,-12.454,0.8053,0.0241,-33.643,1
-0.3995,-0.4119,0.2706,0.74,-0.6203,0.321,1
14.177,-0.6781,-13.075,0.2623,0.2737,18.708,1
0.0132,0.797,-0.2123,-11.702,0.564,-0.1583,1
31.498,-0.7734,-15.01,0.4401,-0.1919,-30.096,1
-0.3573,-0.3755,0.1293,10.166,-0.7377,0.2944,1
25.861,-12.357,-15.461,-0.684,-0.3614,21.403,1
0.1384,0.7996,-0.2775,-0.8518,0.7219,-0.0901,1
33.511,-0.9802,-15.075,0.4229,-0.9307,-30.408,1
-0.5312,-0.4103,0.2202,0.9856,-13.212,0.6993,1
23.315,-11.992,-15.79,-0.4372,0.2008,16.809,1
-0.1251,0.6508,-0.1215,-0.6617,0.6912,-0.6874,1
32.304,-0.6706,-13.245,0.3265,0.6171,-29.974,1
-0.4676,-0.3433,0.1609,12.898,-0.626,0.889,1
21.572,-11.344,-12.737,-12.522,19.479,0.8111,1
-0.0487,0.6654,-0.1062,-0.57,0.4097,-0.8825,1
27.911,-0.9969,-12.586,19.082,-10.4,-15.368,1
-0.3773,-0.4776,0.3517,0.4048,-0.4042,0.9207,1
13.955,-0.7766,-11.402,0.1655,-19.746,19.628,1
0.1431,0.6859,-0.3065,-0.7914,0.5349,-10.036,1
30.517,-0.9469,-14.181,0.2012,-21.431,-25.682,1
-0.0494,-0.3404,-0.0046,12.335,-12.104,0.1466,1
24.298,-12.808,-16.428,-15.054,11.675,18.809,1
-0.0117,0.7022,-0.1444,-0.6106,0.5009,-0.782,1
29.8,-0.9488,-12.0,10.501,-16.02,-28.97,1
-0.6813,-0.5052,0.34,12.409,-0.5693,0.9714,1
17.548,-0.8052,-12.051,-12.164,31.378,0.7353,1
-0.1804,0.5354,-0.1118,-0.588,0.7001,-0.8579,1
22.244,-0.5491,-0.739,11.186,-0.583,-30.824,1
-0.5644,-0.3816,0.118,0.7223,-0.9107,12.205,1
22.388,-0.8615,-11.448,-0.2639,0.1615,13.849,1
0.2775,0.7416,-0.3718,-0.7065,0.3598,-0.2954,1
26.431,-0.8586,-0.8788,0.5032,-11.236,-27.161,1
-0.558,-0.4578,0.2458,10.37,-10.088,0.9907,1
16.866,-0.4539,-10.412,-13.165,11.701,16.021,1
0.0246,0.7045,-0.1386,-0.6788,0.4107,-0.9885,1
0.3151,0.6539,-0.3886,-0.9402,0.866,0.8391,1
20.685,-0.0285,-14.214,0.7667,-13.746,-19.757,1
0.7036,-0.2184,-0.475,18.573,-0.1268,-0.1726,1
0.4853,-10.875,-0.4645,-0.1593,-0.6236,37.45,1
0.8019,0.3417,-0.5887,-12.477,12.737,0.4331,1
15.214,0.3786,-0.9308,0.7811,-0.9484,-21.35,1
-0.0733,-0.3438,0.05,18.751,-11.106,0.6842,1
18.564,-10.986,-11.627,-0.712,-0.7174,29.805,1
0.3519,0.4967,-0.3692,-10.017,14.013,0.1332,1
19.36,0.4204,-0.9921,13.609,-18.867,-16.536,1
0.2807,-0.3701,-0.1211,17.872,-14.39,0.7119,1
20.376,-12.234,-12.8,-0.4332,-0.6618,29.916,1
0.3868,0.4969,-0.4234,-0.939,13.043,0.0589,1
10.527,0.1549,-0.783,13.111,-17.301,-22.542,1
-0.2643,-0.5755,0.2551,13.755,-10.53,11.849,1
17.487,-0.9648,-15.949,-0.0626,-0.9367,35.777,1
0.0435,0.6166,-0.2578,-10.369,17.256,0.1285,1
28.324,-0.7299,-17.258,0.6189,-23.389,-19.303,1
0.3894,-0.254,-0.1977,19.616,-0.9248,0.266,1
21.346,-0.9849,-13.813,-0.9912,-0.4276,25.101,1
0.4024,0.6555,-0.307,-0.5105,0.8258,0.097,1
26.384,-0.2005,-11.805,12.52,-28.181,-21.228,1
0.1395,-0.3445,-0.0658,0.9025,-0.7869,0.6468,1
18.875,-11.294,-14.24,-0.6611,-0.5496,20.229,1
0.1107,0.6415,-0.2584,-0.4594,11.26,0.0877,1
21.203,-0.9372,-14.01,0.1108,-24.005,-22.363,1
-0.2973,-0.3675,0.2039,18.762,-0.7655,0.1906,1
14.149,-0.924,-14.782,0.1545,-0.8028,30.075,1
0.1735,0.6789,-0.3817,-11.024,0.9366,-0.1659,1
22.318,-0.8134,-18.634,-0.298,-18.076,-32.977,1
0.0333,-0.3619,-0.0809,16.656,-0.1395,0.3573,1
18.31,-11.266,-15.171,-0.2823,-0.5284,25.751,1
0.2313,0.5955,-0.3858,-0.6353,15.585,0.3884,1
19.181,-0.2605,-15.026,0.683,-16.384,-24.332,1
-0.5423,-0.3386,0.2306,17.028,0.4735,0.2709,1
21.121,-13.214,-16.31,-0.3635,-13.996,19.538,1
0.0087,0.543,-0.2775,-0.6516,0.6581,-0.7025,1
24.961,-0.7862,-17.268,-0.1676,-27.043,-18.899,1
-0.2463,-0.3993,0.3688,14.826,-0.08,0.4268,1
15.035,-0.964,-14.627,-0.8117,20.174,0.9186,1
0.0083,0.6348,-0.2336,-0.7607,13.252,-0.6718,1
27.182,0.0931,-16.868,12.018,-10.905,-28.952,1
-0.2236,-0.4604,0.3241,11.294,-0.6252,0.958,1
15.9,-0.2604,-15.795,-0.4045,0.281,20.342,1
-0.2334,0.5071,-0.0902,-0.8798,12.239,-11.469,1
20.238,-0.5077,-14.006,-0.0614,-0.5816,-25.283,1
-0.454,-0.4305,0.2657,17.866,-0.6324,11.184,1
12.845,-0.9062,-14.76,-0.8494,0.7162,20.935,1
-0.1012,0.7333,-0.2041,-0.5908,0.7938,-10.841,1
23.772,-0.6071,-17.023,0.1907,-0.9926,-35.621,1
-0.2339,-0.4711,0.1766,12.146,-0.1753,0.494,1
15.516,-13.168,-18.033,0.2631,-10.909,30.528,1
-0.1314,0.9624,-0.1295,-0.8794,0.7895,0.1112,1
20.19,-11.51,-23.627,-0.6201,-13.178,-30.744,1
0.7637,0.2213,-0.7543,0.5451,-0.4838,-29.805,1
0.3452,-0.4069,-0.3089,0.8128,-0.0932,-16.53,1
0.7047,-0.8151,-0.4121,0.6128,20.663,43.344,1
0.7525,0.5845,-0.5305,-10.114,0.8893,15.017,1
10.218,0.4025,-0.3593,12.857,-0.2033,-39.559,1
0.4119,-0.488,-0.2315,11.946,-0.7441,-10.921,1
0.341,-0.6915,-0.2336,0.1233,-0.6501,32.867,1
0.7811,0.2068,-0.666,-0.7989,43.834,0.7591,1
0.0235,0.5043,-0.193,0.2857,0.0583,-20.861,1
23.733,-10.065,-11.269,0.6858,-17.864,-37.907,1
-0.3519,-0.7359,0.4545,0.2568,0.0123,36.407,1
11.007,-0.1141,-10.241,-0.4033,21.825,0.7648,1
0.0997,0.4758,-0.1217,-0.1555,-0.1353,-17.882,1
10.982,-0.9086,-0.9288,0.2368,-0.0167,-33.202,1
-0.1347,-0.5637,0.1918,0.3096,0.5015,22.949,1
0.8843,-0.389,-13.009,-0.1072,15.08,16.497,1
0.3907,0.3878,-0.3653,-0.2069,16.924,-23.002,1
24.053,-0.7855,-0.5886,16.994,-24.764,-27.442,1
-0.3122,-0.6745,0.3151,0.6868,0.0902,11.383,1
14.209,-0.4259,-11.172,-0.6324,0.1317,11.382,1
0.1885,0.3743,-0.2466,-0.1217,0.2558,-20.623,1
19.129,-0.7129,-0.9932,13.512,-17.836,-28.503,1
-0.1896,-0.5679,0.2932,-0.4357,0.2211,25.25,1
12.686,-0.879,-15.035,0.2519,12.256,17.674,1
0.0964,0.78,-0.1726,-0.1066,0.4293,-22.755,1
22.014,-0.994,-15.146,-12.3,-19.876,-24.838,1
-0.1057,-0.5099,0.2363,10.077,-0.5061,0.4672,1
13.921,-0.8104,-16.559,0.5857,0.866,20.493,1
-0.1053,0.9329,-0.1563,-0.6643,0.788,-12.99,1
19.484,-0.8336,-14.548,-0.4076,0.0503,-30.568,1
-0.3537,-0.2621,0.4351,0.9232,-0.2157,0.8536,1
17.788,-13.093,-19.429,-0.3247,0.5228,21.956,1
0.0917,0.7332,-0.2712,-0.77,0.7244,-0.8974,1
31.434,-11.609,-18.981,-0.1858,-12.74,-31.154,1
-0.3725,-0.4484,0.2607,16.616,-0.3716,0.4318,1
14.508,-0.6306,-13.451,-0.9008,13.633,14.317,1
-0.0233,0.7838,-0.2133,-0.93,0.8756,-10.264,1
32.2,-0.9315,-16.437,15.073,-0.2086,-32.464,1
-0.0349,-0.6753,0.2109,0.4646,-15.491,13.592,1
17.053,-0.5653,-15.657,-0.8083,18.488,11.213,1
0.1858,0.4865,-0.1946,-0.8011,0.7197,-19.254,1
13.375,-0.5215,-0.8092,13.028,-0.2073,-24.85,1
0.34,-0.8543,-0.0957,0.032,0.4533,33.529,1
0.6794,0.2972,-0.7126,-0.8777,17.061,0.7907,1
10.551,0.3167,-0.5863,0.5196,-0.5036,-39.064,1
0.268,-0.3385,-0.4106,0.9324,0.4023,-0.8936,1
0.4171,-0.9175,0.0871,0.0042,0.4079,35.116,1
0.6502,0.1023,-0.8866,-13.008,37.09,0.8546,1
0.2616,0.4112,-0.3091,0.3508,0.6009,-36.585,1
0.9188,-0.5914,-0.295,11.234,-0.301,-0.4513,1
0.6267,-0.8323,-0.2788,0.4787,-0.2036,34.312,1
0.7265,0.4528,-0.5199,-13.118,16.908,0.4158,1
0.8781,0.2365,-0.5634,0.8609,-0.5483,-28.525,1
24.236,-0.1476,-17.534,0.7054,-0.6133,-29.053,1
0.6767,0.8096,-0.6106,-0.8998,0.6081,0.5656,1
13.908,0.3167,-0.9589,0.6309,0.0691,-23.698,1
0.1502,-0.3134,-0.0572,18.488,-0.5628,0.589,1
21.83,-11.286,-14.333,-0.8582,-0.2975,29.048,1
0.3067,0.6812,-0.4039,-0.6844,12.722,0.4608,1
24.379,-0.2982,-12.546,0.8939,-24.947,-16.99,1
-0.1638,-0.3195,0.1036,12.061,-11.261,0.2904,1
20.416,-12.795,-12.662,-0.754,-15.118,32.113,1
0.2902,0.92,-0.366,-0.6004,0.8162,-0.4225,1
25.861,-0.6709,-16.003,0.5558,-0.9396,-19.467,1
-0.2914,-0.3557,0.1841,18.388,-0.415,-0.0625,1
18.686,-11.351,-17.845,-0.0102,-0.7649,31.239,1
0.3338,0.636,-0.4026,-0.9087,0.8723,0.5333,1
22.903,-0.1359,-17.477,0.05,-0.0834,-30.967,1
-0.1005,-0.5005,-0.0071,17.544,0.0509,0.672,1
25.197,-10.243,-14.722,-0.317,-0.4656,41.655,1
0.7202,0.4975,-0.5418,-0.7929,10.288,0.726,1
13.183,0.3234,-10.248,0.9966,-27.531,-20.807,1
0.1372,-0.3765,0.0037,11.887,-0.4336,0.3766,1
23.456,-11.11,-15.184,-0.2157,-0.8808,37.846,1
0.6724,0.6334,-0.4968,-0.4855,0.5087,0.7039,1
11.374,0.2641,-0.7271,0.8581,0.014,-29.765,1
0.275,-0.6427,-0.0193,0.8789,-0.0512,0.1647,1
10.816,-0.8565,-0.6942,0.7706,-0.338,38.739,1
0.5823,0.6237,-0.4447,-0.8279,0.9129,0.1898,1
23.74,-0.5098,-14.93,0.9147,-11.677,-24.02,1
0.4515,-0.3547,-0.1233,11.905,-0.7869,0.4502,1
12.585,-11.27,-0.8669,0.3435,-0.7963,30.736,1
0.6194,0.4724,-0.5499,-13.046,0.7549,0.0687,1
22.503,-0.0037,-16.249,0.6561,-12.732,-20.835,1
0.0306,-0.3789,0.0399,14.493,-0.6779,0.1134,1
19.213,-11.832,-15.102,0.241,-15.742,29.683,1
0.3671,0.7154,-0.4337,-0.9393,10.332,-0.0039,1
18.084,0.032,-14.008,0.2585,-0.0985,-29.912,1
-0.2877,-0.5549,0.3046,13.359,-0.2045,0.5887,1
16.845,-0.8465,-16.778,0.2168,-10.911,24.482,1
-0.0109,0.6555,-0.1799,-11.789,13.874,-0.5621,1
21.803,-0.5243,-15.871,0.9366,-10.099,-19.786,1
-0.1961,-0.4164,0.2136,14.414,-0.7717,0.6374,1
13.884,-0.6344,-14.87,-0.259,-0.2127,19.139,1
-0.0738,0.5974,-0.2451,-0.8588,13.137,-0.3492,1
26.875,-0.4387,-17.625,0.3873,-10.263,-24.165,1
-0.3961,-0.4674,0.3244,13.298,-0.7569,0.5735,1
17.476,-0.7814,-15.902,-0.4095,-21.485,23.713,1
0.211,0.6721,-0.3065,-0.4926,0.2886,-0.9249,1
19.112,-0.3388,-16.058,-0.349,-0.9551,-29.322,1
-0.4599,-0.7968,0.4782,10.365,-0.4521,10.711,1
18.629,-0.857,-17.728,0.4119,-0.2255,25.918,1
0.4206,0.5903,-0.4649,-0.9405,0.8424,-0.728,1
25.68,-0.6964,-19.435,-0.2152,-15.497,-34.155,1
0.0003,-0.3305,0.0283,17.679,0.1239,0.6096,1
12.806,-0.5549,-13.767,-0.7312,0.8697,17.579,1
0.075,0.4956,-0.4289,-0.3261,0.7009,-0.4848,1
0.6912,-0.3726,-0.4482,15.514,-0.1401,-0.3966,1
0.4263,0.4001,-0.4903,-10.308,0.9639,0.1269,1
12.423,0.3861,-11.457,0.5252,0.394,-26.989,1
0.2789,-0.2821,-0.257,0.8983,0.0051,0.1551,1
0.3905,-0.7637,-0.3102,12.841,0.4366,45.06,1
0.7924,0.3996,-0.7903,-0.8294,13.835,0.696,1
0.614,0.2188,-0.4888,0.9571,-12.362,-24.121,1
0.4178,-0.2854,-0.2272,0.9419,-0.8469,-0.7463,1
16.399,-10.599,-12.977,0.5791,10.763,44.436,1
0.353,0.7213,-0.4206,-0.7916,0.9557,0.6114,1
0.4572,0.2482,-0.5724,10.2,-0.1974,-28.83,1
0.5841,-0.2376,-0.6041,0.9989,-0.9538,0.391,1
0.3031,-10.16,-0.3287,17.405,20.593,38.775,1
0.745,0.246,-0.7305,-10.662,20.817,0.1085,1
12.045,0.1196,-0.8087,0.0372,-0.742,-36.621,1
0.508,-0.3988,-0.3233,0.985,-0.4469,-0.222,1
0.5668,-0.8771,-0.3998,0.9297,0.2979,41.11,1
0.7209,0.3769,-0.6971,-11.442,13.406,10.636,1
10.045,0.3083,-0.8163,0.529,-0.0251,-30.402,1
0.851,-0.5661,-0.5188,0.495,0.2683,-14.025,1
15.224,-10.68,-10.543,0.8292,0.2461,42.838,1
0.565,0.5944,-0.4495,-13.123,16.309,0.7313,1
0.4552,0.3352,-0.3388,0.6456,-0.4212,-33.379,1
0.6182,-0.3459,-0.382,10.061,11.439,-0.8586,1
12.901,-0.9112,-0.7055,-0.301,0.4552,38.268,1
0.7654,0.5204,-0.4714,-12.888,20.734,13.73,1
0.5993,0.4122,-0.4063,14.518,-0.9003,-25.756,1
0.5678,-0.3403,-0.4797,14.944,-0.4754,-0.0223,1
18.729,-13.489,-13.898,0.503,-0.7734,38.401,1
0.2794,0.6428,-0.3775,-0.8652,10.718,0.6439,1
23.0,-0.1382,-17.2,0.7429,-10.223,-27.802,1
0.0415,-0.3112,-0.0497,10.752,-0.1729,-0.1767,1
21.652,-12.092,-17.032,0.6043,13.863,45.952,1
0.5238,0.6036,-0.4916,-10.023,10.052,0.068,1
16.88,0.1695,-11.861,0.5272,-0.2831,-25.265,1
0.0653,-0.3576,0.1688,15.532,-0.633,-0.0127,1
16.788,-10.132,-12.93,0.2636,0.4002,38.967,1
0.7221,0.5982,-0.6197,-10.996,10.636,0.392,1
22.574,0.0879,-12.122,10.991,0.3486,-22.024,1
-0.4603,-0.1835,-0.2844,15.108,0.4661,10.028,1
22.849,-12.101,-13.165,0.0121,-37.074,39.178,1
0.1602,0.6898,-0.3962,-0.832,0.9479,0.5906,1
19.26,0.2395,-0.9736,0.6427,-0.9128,-37.116,1
0.3091,-0.3037,-0.2487,16.98,-0.164,-0.5809,1
23.046,-0.8552,-13.993,0.067,0.5715,47.858,1
0.3296,0.8331,-0.4513,-0.8257,13.658,10.738,1
25.582,-0.1119,-15.68,0.7396,-11.759,-26.87,1
-0.0886,-0.4025,0.1171,13.392,-0.2345,-0.4119,1
24.609,-13.585,-19.493,0.5175,-18.146,48.706,1
-0.0428,0.7831,-0.277,-0.7763,0.9225,0.7454,1
26.284,-0.4607,-16.84,0.3669,0.4188,-33.191,1
-0.0497,-0.4672,0.0633,15.904,-0.6597,0.1453,1
20.54,-10.006,-20.278,0.9348,-21.566,40.747,1
0.2054,0.7552,-0.3404,-0.611,19.939,0.9117,1
21.82,-0.692,-15.199,0.2976,-34.151,-10.621,1
14.632,-0.8095,-10.044,0.5512,-0.0132,45.264,1
0.4051,0.5696,-0.4752,-0.978,-0.0426,0.5678,1
32.642,-0.4511,-20.653,0.7096,-10.781,-14.617,1
-0.5687,-0.2505,0.1882,11.91,-0.6014,-0.7004,1
11.173,-10.195,-0.6676,0.2617,-0.4492,42.691,1
0.0879,0.8297,-0.2832,-0.8439,0.6225,0.6484,1
31.178,-0.4352,-19.73,0.9288,-0.9268,-19.921,1
-0.1023,-0.343,-0.0807,16.936,-0.4682,-10.965,1
0.7034,-0.7935,-0.478,0.373,-0.507,56.894,1
0.6713,0.6458,-0.3977,-11.854,27.792,10.447,1
17.815,0.6116,-10.528,0.2824,0.0427,-15.864,1
0.2315,-0.4862,-0.2333,15.704,-15.623,0.1541,1
15.673,-10.348,-0.9155,0.1256,-14.836,51.817,1
0.1774,0.6092,-0.4192,-0.7424,10.262,0.365,1
30.105,-0.3275,-18.396,12.665,-0.8867,-12.101,1
-0.2523,-0.4084,0.1055,13.808,-14.769,-0.818,1
23.092,-10.576,-17.748,0.0546,-0.5384,45.94,1
0.2379,0.6679,-0.3461,-10.315,0.8815,0.8496,1
21.339,0.4696,-13.639,0.8227,-0.6395,-25.866,1
0.1106,-0.4152,-0.1517,19.325,-12.575,-0.7298,1
20.049,-14.286,-12.864,-0.0806,-0.0161,46.115,1
0.7811,0.2807,-0.663,-11.356,11.103,0.7479,1
10.51,0.4752,-0.7988,0.6984,-0.1854,-19.234,1
0.6991,-0.3462,-0.6852,15.586,-16.213,0.1367,1
11.162,-11.898,-11.894,-0.4766,-0.4175,37.082,1
0.6486,0.5239,-0.4777,-12.152,0.9976,0.7995,1
0.903,0.4794,-0.5936,15.147,-0.2256,-12.599,1
0.1899,-0.4761,-0.1481,12.304,-21.253,-12.398,1
11.173,-0.7366,-0.6504,-0.5744,17.737,44.211,1
0.7137,0.574,-0.5864,-11.771,0.8628,0.7609,1
10.54,0.0979,-0.8095,12.987,-0.8927,-10.616,1
0.0069,-0.3546,-0.021,18.09,-10.906,-0.2899,1
21.644,-15.149,-17.604,-0.3037,-0.7578,37.602,1
0.4814,0.5965,-0.453,-10.18,0.85,0.8863,1
11.581,-0.0632,-0.9714,0.8237,-0.2885,-23.436,1
0.2084,-0.3807,-0.3536,12.722,-0.449,0.0667,1
16.012,-11.875,-0.9519,0.2564,-0.8924,47.473,1
0.3558,0.8,-0.4313,-10.061,11.122,0.8864,1
11.915,0.3304,-10.186,-0.0733,0.6445,-35.714,1
0.1704,-0.2886,-0.4988,14.878,-0.6939,-0.8381,1
0.7494,-0.6583,-0.6426,0.2547,0.1398,36.59,1
0.7971,0.8851,-0.6096,-0.452,14.88,15.441,1
10.83,0.4746,-0.9455,0.5503,-10.819,-33.473,1
0.4219,-0.3074,-0.5591,-0.2282,17.298,-17.483,1
0.718,-0.7597,-0.3449,0.8538,-0.9462,23.486,1
0.5088,0.3142,-0.7409,-0.5219,28.294,23.985,1
0.9776,0.4864,-0.8498,-0.1765,-14.809,-26.583,1
0.457,-0.6503,-0.6212,0.2354,0.5172,-27.119,1
0.0267,-0.5955,0.2867,0.3012,0.0849,31.972,1
11.917,-0.4746,-12.041,0.4993,26.443,16.624,1
0.3396,0.52,-0.3374,-0.5194,-0.9762,-30.018,1
0.6049,-10.957,-0.8323,0.4276,22.858,-28.228,1
0.1619,-0.7971,0.0788,-0.7494,-0.0219,32.917,1
0.7859,-0.084,-0.8941,-0.8337,43.093,0.6966,1
0.0073,-0.487,0.2077,16.602,-0.1455,11.441,1
10.438,-0.9575,-15.062,-0.3216,0.5265,17.327,1
0.1433,0.5192,-0.2627,-0.9272,16.811,-16.729,1
22.371,-0.7552,-17.083,0.136,-15.146,-27.971,1
0.0264,-0.331,0.0506,15.167,-0.262,13.726,1
17.686,-14.685,-15.737,-0.2698,0.0037,20.285,1
0.0618,0.546,-0.2482,-0.8415,16.716,-0.3287,1
21.638,-0.8482,-16.042,0.1116,-13.578,-26.272,1
-0.044,-0.3013,0.0971,0.9746,-0.8106,14.658,1
13.457,-11.965,-12.095,14.922,-0.859,39.094,1
0.8192,0.2275,-0.8905,-0.7967,12.96,0.301,1
12.124,-0.0107,-10.455,0.2937,-0.785,-37.074,1
0.4068,-0.3839,-0.2297,0.8493,-0.1267,0.2427,1
0.5147,-0.9805,-0.3019,0.8714,0.1033,40.063,1
0.2921,0.512,-0.4599,-0.6089,12.543,0.7701,1
18.794,-0.1845,-12.748,0.0935,-0.4922,-29.529,1
0.3286,-0.3777,-0.2617,10.588,-0.5774,-0.8225,1
11.332,-0.9366,-0.895,0.5591,0.5242,35.733,1
0.6213,0.0669,-0.7913,-0.4558,0.968,11.428,1
0.9511,0.2046,-0.6843,-0.493,0.1706,-31.07,1
0.7168,-0.472,-0.6707,0.742,0.2074,-18.388,1
0.188,-0.7797,-0.0671,0.6218,-0.2354,30.349,1
0.9365,-0.0107,-0.9318,-0.8512,22.161,12.945,1
0.2975,0.4161,-0.272,-0.0524,-0.0569,-30.838,1
12.798,-0.5743,-10.106,0.561,0.6263,-18.575,1
-0.0869,-0.6887,0.2393,0.3895,0.2361,27.389,1
10.122,-0.2273,-10.546,-10.339,23.897,13.871,1
0.3333,0.3848,-0.2277,-0.1961,0.0406,-30.41,1
16.956,-0.6535,-12.241,-0.3303,-0.894,-26.683,1
-0.2258,-0.3403,0.2133,15.532,-0.4981,18.433,1
14.068,-0.8882,-15.139,-0.4646,18.095,16.298,1
0.0963,0.5225,-0.2823,-0.5484,0.7571,-20.248,1
19.969,-0.8939,-14.736,-0.7542,-0.6621,-26.135,1
-0.1169,-0.3932,0.1796,13.408,-0.2944,15.798,1
0.964,-0.4902,-13.905,-0.62,14.226,20.588,1
0.0635,0.5689,-0.2044,-0.7938,12.481,-17.012,1
13.578,-0.8948,-10.42,-0.0223,-0.314,-31.001,1
-0.051,-0.5311,0.225,13.284,0.191,0.5847,1
0.936,-0.4492,-13.08,-0.3727,0.5931,21.33,1
0.2115,0.5003,-0.2146,-10.244,10.705,-10.94,1
17.08,-0.9987,-14.293,0.5305,-14.576,-31.527,1
0.0444,-0.3928,0.1054,0.6506,0.1353,0.9819,1
16.665,-12.234,-15.715,0.4739,-0.1605,30.058,1
0.2713,0.4885,-0.4922,-0.5969,11.052,-0.1253,1
18.886,-0.7954,-15.242,-0.09,-13.547,-30.136,1
0.2362,-0.4403,-0.1327,0.7698,0.2536,0.5323,1
13.978,-0.8945,-12.313,0.4332,-0.2548,36.534,1
0.5154,0.3447,-0.6556,-0.2559,12.893,0.7518,1
13.147,0.1078,-11.265,0.0557,-0.4121,-36.285,1
0.4187,-0.3652,-0.3852,0.936,0.2938,-0.0629,1
0.5322,-0.949,-0.3859,0.7405,0.4645,40.912,1
0.8203,0.2617,-0.7641,-0.7157,15.39,13.641,1
0.6811,0.0984,-0.8193,0.3024,-0.4845,-27.46,1
0.8355,-0.4419,-0.6964,0.2802,-12.129,-13.299,1
17.284,-0.6317,-12.844,-0.0589,-0.7715,-36.156,1
-0.204,-0.5363,0.2113,0.9246,-0.4682,14.316,1
13.562,-0.6699,-16.032,0.277,0.7385,17.935,1
0.0371,0.3581,-0.2272,-0.908,16.025,-0.8081,1
21.488,-0.6476,-15.464,0.1117,-12.694,-29.077,1
-0.1862,-0.5337,0.2493,14.46,-0.8547,11.224,1
16.223,-12.189,-16.017,-0.3718,-0.7796,27.63,1
0.305,0.5781,-0.3982,-0.5983,14.634,0.1067,1
23.217,-0.3704,-15.997,0.7761,-0.8692,-31.005,1
0.2472,-0.2851,-0.0003,14.709,-0.4043,0.4699,1
10.942,-11.486,-0.9243,0.7621,0.6501,41.665,1
0.464,0.5575,-0.5135,-0.5843,0.8313,0.9957,1
11.531,0.0874,-0.9346,-0.1906,0.1353,-37.559,1
0.5797,-0.2808,-0.3931,0.5996,-0.0072,-13.238,1
0.1213,-0.6997,0.0225,0.8251,-0.098,32.281,1
0.7278,-0.1984,-12.63,-0.8033,27.008,13.748,1
0.1048,0.5677,-0.2482,-0.3424,0.4654,-21.904,1
15.65,-0.5208,-11.591,-0.0999,0.5982,-30.618,1
0.1344,-0.8162,0.1006,0.9581,-0.0975,12.162,1
0.9283,-0.1448,-11.698,-0.1332,20.415,20.727,1
0.14,0.4851,-0.2237,-0.4079,12.388,-16.173,1
14.385,-0.7805,-11.151,-0.2662,-0.4968,-23.504,1
-0.0863,-0.365,0.1472,0.8425,-0.2491,11.726,1
0.9152,-0.6107,-13.209,-0.7668,15.611,12.611,1
0.2317,0.5253,-0.3618,-0.6629,18.79,-14.686,1
22.049,-0.3259,-12.8,0.179,-25.233,-20.214,1
0.2507,-0.2345,0.004,15.314,-0.4871,12.395,1
19.23,-12.932,-16.491,0.4336,-15.083,27.99,1
0.6924,0.3529,-0.476,-0.9959,0.8347,0.1869,1
15.57,0.3928,-10.077,12.777,-19.692,-27.249,1
0.4582,-0.3522,-0.1804,11.256,0.3404,0.4214,1
18.078,-0.9266,-12.659,-0.0041,-0.8612,28.636,1
0.6136,0.2837,-0.6088,-0.6442,12.676,10.676,1
11.027,0.1716,-0.6439,10.851,-22.407,-25.446,1
10.072,-0.3937,-0.6381,0.2326,0.1426,-0.8628,1
0.1525,-0.9591,0.2387,-0.0763,0.0059,41.452,1
0.9476,-0.2196,-11.682,-0.8475,17.962,11.539,1
0.2938,0.4384,-0.2248,-0.1897,12.129,-34.676,1
16.243,-0.894,-12.436,-16.865,-0.3868,-27.42,1
0.0436,-0.334,0.0941,18.819,-0.6187,13.819,1
17.883,-12.228,-17.046,0.8564,-22.959,21.798,1
0.0655,0.5391,-0.1452,-12.104,14.84,-0.55,1
24.85,-0.6088,-16.519,0.3371,-23.98,-33.05,1
0.0724,-0.3878,0.1019,11.331,-0.3029,0.8285,1
19.56,-11.753,-15.113,0.7586,-24.78,35.154,1
0.2556,0.5083,-0.4264,-0.4345,14.843,-0.3005,1
16.175,0.0904,-10.664,0.3468,-17.618,-26.28,1
0.746,-0.2889,-0.3537,10.407,-0.2123,0.5842,1
0.6452,-10.316,-0.419,0.833,-0.3162,42.564,1
0.7225,0.2318,-0.6635,-0.9324,14.08,0.6165,1
11.751,0.1952,-0.9681,0.0367,0.1092,-35.06,1
0.4177,-0.4457,-0.262,0.5005,0.3848,-12.34,1
0.801,-10.26,-0.4106,10.258,-0.0569,42.385,1
0.7847,0.0264,-11.453,-0.7968,16.472,0.7163,1
0.282,-0.5046,-0.2511,-0.1293,-0.0017,11.054,1
11.235,-0.1179,-11.077,0.4099,27.514,24.037,1
0.1412,0.652,-0.2223,-0.3158,-0.1214,-19.308,1
0.9833,-0.8033,-10.295,-10.546,12.874,-42.56,1
-0.3145,-0.4814,0.2074,-0.2625,0.2037,0.2305,1
15.07,-10.141,-17.48,0.9164,14.571,29.742,1
0.1427,0.8,-0.1467,-0.7229,-0.2188,-0.0441,1
18.034,-0.9815,-17.033,-0.7475,10.721,-48.945,1
-0.2741,-0.4393,0.2177,-0.1699,-0.2264,-0.3147,1
26.631,-0.9336,-18.427,22.44,-41.823,43.571,1
0.3857,0.6453,-0.3095,-0.3311,-0.2315,11.483,1
32.842,0.2105,-17.703,0.3985,-18.183,-22.165,1
0.243,-0.5004,-0.2278,0.0056,-0.7518,-13.635,1
0.2657,-0.69,-0.4128,0.3714,10.898,56.596,1
12.394,0.1587,-0.8819,-0.6012,0.9783,20.708,1
0.2464,0.5719,-0.1693,-0.0648,0.3893,-24.12,1
0.9244,-0.8537,-0.9113,0.2027,10.991,-38.893,1
-0.1521,-0.5983,0.276,-0.1934,-0.4778,10.337,1
0.7984,-0.1365,-11.247,0.4918,32.006,27.698,1
0.0415,0.704,-0.1006,-0.4696,0.1754,-13.057,1
13.457,-0.8944,-11.366,-0.4459,10.44,-43.412,1
-0.4349,-0.5755,0.3564,-0.1751,-20.902,-0.29,1
0.9865,-0.4729,-14.521,15.357,-0.0007,24.839,1
-0.0003,0.7781,-0.2855,-0.3249,0.1792,-0.3355,1
15.888,-14.794,-15.614,-12.709,-11.929,-33.791,1
-0.0103,-0.4386,-0.0991,0.2971,-0.1269,-12.222,1
19.259,-0.7624,-11.092,19.56,-41.256,52.198,1
0.3793,0.8158,-0.3356,-0.8047,0.0882,11.876,1
0.9433,0.9946,-0.9051,12.24,-25.081,-10.179,1
0.4362,-0.4818,-0.5045,0.3693,-0.1128,-22.647,1
0.0357,-0.7717,-0.0119,0.2254,15.576,51.61,1
0.9724,0.1252,-0.8007,-0.2401,18.13,19.097,1
12.237,0.6897,-10.031,0.1812,0.0685,-22.78,1
0.572,-0.5169,-0.5731,-0.467,10.76,-30.836,1
0.0289,-0.8115,0.0901,-0.569,0.2068,20.561,1
0.9243,-0.0801,-10.379,0.465,38.905,20.749,1
0.157,0.8798,-0.2682,-0.0873,-0.061,-26.548,1
0.8611,-11.709,-10.324,-16.419,21.839,-30.682,1
-0.2361,-0.3768,0.243,0.2155,0.3913,-0.2255,1
24.371,-10.972,-16.059,0.1868,24.712,18.281,1
0.0061,0.7249,-0.1852,-11.416,0.2071,-0.3932,1
14.099,-0.96,-13.749,-0.618,0.0254,-35.72,1
-0.3527,-0.498,0.2766,0.2578,-0.3962,-0.2624,1
10.942,-11.971,-18.913,19.924,-26.066,29.503,1
0.0225,0.6199,-0.2712,-0.4946,-0.0876,0.2715,1
18.074,-13.214,-17.249,-0.6959,-25.853,-30.169,1
0.0286,-0.4086,-0.0939,0.8114,-0.3137,-10.573,1
0.7004,-0.8029,-0.9529,0.6982,-0.162,60.21,1
0.8645,0.3434,-0.6604,-0.2268,0.0591,12.644,1
17.421,0.8718,-12.351,0.8035,-0.7351,-16.663,1
0.3768,-0.4726,-0.4142,-0.1501,-0.1432,-20.223,1
0.1975,-0.6074,0.0081,-0.292,-0.7182,27.303,1
10.568,0.2851,-0.8174,0.0696,24.016,19.338,1
0.351,0.5496,-0.3311,0.0334,-0.1405,-24.22,1
0.9347,-0.4751,-0.731,14.489,0.653,44.916,1
0.8484,0.3884,-0.8148,-0.3714,11.304,17.906,1
10.678,0.6711,-0.9269,0.4635,-0.4462,-31.295,1
0.246,-0.6179,-0.4305,-0.3307,-0.2597,-26.764,1
-0.0102,-0.5901,0.2411,0.1515,-0.668,24.225,1
0.8823,-0.1471,-10.446,0.019,29.37,19.929,1
0.3133,0.4771,-0.2797,-0.0239,-0.4001,-20.709,1
0.9962,-0.999,-10.011,-12.905,0.6101,-34.856,1
-0.2745,-0.4238,0.2715,0.2166,0.5876,0.8791,1
0.9953,-0.0564,-0.9659,0.3041,29.672,21.983,1
0.0179,0.7832,-0.1059,-0.48,-0.0102,-12.343,1
12.334,-10.914,-12.951,-0.7676,10.998,-34.103,1
-0.4757,-0.4164,0.3433,-0.3035,-0.5617,0.112,1
14.518,-15.39,-20.849,14.309,31.756,11.259,1
0.0914,0.7956,-0.3234,-0.6895,0.1098,-0.9351,1
15.098,-12.504,-13.77,-0.811,-0.672,-36.508,1
-0.3973,-0.3758,0.2316,0.375,0.0251,-0.3468,1
19.553,-15.435,-19.987,0.7879,0.3858,17.286,1
0.1001,0.6859,-0.2691,-10.093,-0.0009,0.6073,1
18.023,-13.571,-15.948,-0.0802,-24.918,-26.402,1
-0.5957,-0.3622,0.2913,0.5282,0.0725,-0.4927,1
12.535,-0.6551,-14.071,-0.4884,0.5397,18.288,1
0.1205,0.7939,-0.3166,-0.5564,0.1221,0.6508,1
16.382,-0.6554,-16.282,0.3707,-12.359,-21.19,1
0.152,-0.5524,-0.0472,0.0865,-0.2481,-19.781,1
17.121,-0.7946,-0.9521,-0.1887,-0.1784,58.278,1
0.7231,0.915,-0.4255,-10.188,0.3758,14.663,1
12.562,0.1302,-0.9728,17.536,-23.491,-23.329,1
0.2413,-0.4881,-0.2019,0.651,-0.9453,-0.7487,1
12.35,-0.6688,-0.7346,11.897,-0.2513,58.373,1
0.7073,0.5335,-0.5591,-10.919,0.6713,12.569,1
15.803,-0.2289,-11.825,10.545,-12.398,-17.178,1
-0.1321,-0.4926,0.0803,0.6521,-0.824,-11.997,1
12.802,-0.6157,-0.9913,10.948,-0.091,39.094,1
0.8537,0.2574,-0.863,-0.6495,20.338,14.757,1
0.8193,0.4587,-0.7187,0.0825,-0.4365,-30.224,1
0.3728,-0.6145,-0.582,0.5088,-0.4265,-22.229,1
0.135,-0.7254,0.0688,-0.5496,-0.0931,32.839,1
0.8038,0.4171,-0.7202,-0.5618,19.527,16.868,1
0.7516,0.321,-0.482,-0.1543,0.0284,-22.963,1
0.6468,-0.81,-0.6782,0.7382,0.7161,-28.543,1
0.4647,-0.7755,-0.2396,-0.1474,-0.4312,34.422,1
0.8096,-0.2871,-10.945,-0.7891,26.759,13.143,1
0.2289,0.5167,-0.1429,-0.1333,-0.6458,-23.944,1
0.6743,-0.9566,-0.7949,0.299,13.935,-31.291,1
0.0066,-0.6922,0.2908,-0.9468,0.3629,30.048,1
0.8775,0.0165,-0.8942,-0.0144,40.682,0.7579,1
0.2834,0.4227,-0.2617,-0.288,0.076,-22.271,1
14.392,-0.9629,-11.043,-0.3898,0.2275,-29.57,1
-0.1276,-0.4942,0.1946,0.1371,0.006,17.214,1
0.9346,-0.4155,-14.096,0.3366,24.919,18.541,1
0.0134,0.729,-0.1033,-0.6964,0.1511,-15.824,1
20.837,-12.876,-18.957,-11.724,0.1171,-31.939,1
-0.1535,-0.4105,0.2313,0.5364,-0.5137,0.3072,1
21.15,-0.9043,-15.443,0.6051,-0.9726,-31.975,1
-0.4355,-0.3933,0.3737,0.9067,-0.4353,0.9674,1
13.045,-0.7113,-15.426,-0.402,13.266,13.92,1
-0.0641,0.8457,-0.2812,-0.9646,14.224,-0.6255,1
22.537,-0.8665,-13.752,0.4901,-0.8835,-30.052,1
-0.5244,-0.4164,0.3042,0.8455,0.2658,16.932,1
13.59,-0.7579,-13.73,-0.8398,0.6855,16.214,1
0.033,0.7734,-0.1985,-0.7684,14.031,-0.8787,1
24.811,-0.827,-13.729,10.777,-10.075,-30.05,1
-0.5181,-0.4312,0.3639,11.089,-0.4765,0.5772,1
20.407,-10.357,-15.247,-0.8905,15.853,11.589,1
0.0977,0.7579,-0.3758,-0.4382,0.1071,-11.523,1
28.119,-0.489,-14.141,11.193,-20.653,-26.786,1
-0.4132,-0.4467,0.1879,15.398,-0.258,14.053,1
18.392,-10.617,-13.668,-0.8269,12.583,27.9,1
0.2982,0.7641,-0.3115,-0.3611,0.7069,-18.514,1
33.374,-12.42,-13.716,0.5028,-10.969,-30.519,1
-0.6281,-0.4122,0.3648,0.7117,-0.4715,16.323,1
15.145,-10.477,-15.798,-0.5395,17.2,15.229,1
0.0129,0.8347,-0.1403,-0.8015,0.8499,-12.665,1
14.405,-0.8099,-0.9137,0.9362,-0.3396,-34.529,1
-0.2582,-0.6165,0.3277,0.9956,-0.4921,11.544,1
0.8992,-0.2607,-0.9926,-0.9018,26.187,12.958,1
0.041,0.5596,-0.0993,-0.5094,0.7216,-15.873,1
14.482,-0.9913,-12.0,0.0591,-0.1632,-32.827,1
-0.3035,-0.5103,0.3346,0.8485,0.0211,20.263,1
0.8919,-0.4999,-12.371,-0.74,27.559,0.8821,1
0.0233,0.7526,-0.1677,-0.3734,0.5509,-20.529,1
17.209,-0.9991,-11.776,0.0485,0.1711,-31.302,1
-0.3237,-0.4789,0.3352,0.4711,0.5946,23.335,1
10.73,-0.5478,-14.023,-0.9791,22.576,10.657,1
0.132,0.5724,-0.1507,-0.441,0.0713,-17.898,1
0.8785,-0.7316,-0.8808,0.8627,0.253,-28.082,1
0.0663,-0.7527,0.0551,0.1833,0.2411,32.06,1
0.8459,0.0973,-0.8269,-0.9555,29.164,0.5857,1
0.3868,0.3823,-0.327,-0.3736,-0.2014,-24.004,1
0.8115,-0.7518,-0.7643,0.5709,0.0637,-22.346,1
0.1344,-0.7143,-0.0571,0.5447,0.2844,28.468,1
0.8238,-0.1022,-0.9617,-12.871,24.69,0.9196,1
0.2723,0.4301,-0.2535,0.0047,-0.1474,-23.488,1
13.565,-0.9475,-10.397,0.7308,-0.8937,-18.519,1
-0.1466,-0.7167,0.4152,0.0566,11.351,25.285,1
0.7976,-0.1868,-11.508,-19.287,36.683,0.9564,1
0.3083,0.3996,-0.2218,-0.177,0.5088,-28.607,1
0.6216,-0.7063,-10.355,0.4178,0.5564,-20.739,1
0.1554,-0.8017,-0.0725,0.7897,-0.0616,26.023,1
0.8251,0.2221,-0.837,-15.076,32.999,16.072,1
0.1839,0.4949,-0.1738,0.1791,-0.2795,-29.027,1
0.5529,-0.5734,-0.6207,0.9506,0.4718,-20.041,1
-0.0199,-0.8746,-0.1297,0.4876,-0.4229,34.188,1
0.8598,0.2919,-0.7885,-10.079,30.428,11.029,1
0.3755,0.2518,-0.3561,0.5852,0.2195,-35.776,1
0.5646,-0.7951,-0.8391,0.8987,15.537,-0.8449,1
0.0383,-0.7005,0.4028,0.4117,0.9479,36.75,1
0.8815,-0.2823,-13.077,0.1028,0.5615,24.39,1
0.1522,0.567,-0.1219,-0.8155,10.935,-14.262,1
12.843,-0.9861,-0.9719,0.1089,-0.8984,-32.1,1
-0.2369,-0.5843,0.3546,14.288,-0.3548,20.894,1
0.9033,-0.4593,-13.204,-0.3862,21.342,0.8382,1
0.0185,0.6082,-0.1875,-0.5382,0.4745,-19.891,1
13.522,-11.351,-12.159,-0.3801,-22.282,-23.922,1
-0.207,-0.5845,0.2696,0.9288,-0.1601,19.718,1
0.9729,-0.4265,-15.506,-0.4017,29.089,0.9309,1
0.0277,0.4821,-0.1678,-0.2451,0.8058,-18.112,1
12.473,-0.8556,-11.144,0.1998,-0.1594,-24.493,1
-0.1235,-0.6814,0.2941,0.4672,0.3874,29.282,1
0.853,-0.0742,-10.895,-0.6188,29.326,0.9891,1
0.3131,0.4268,-0.231,-0.0335,0.244,-25.359,1
14.37,-0.9744,-11.939,0.0143,-0.1637,-19.363,1
-0.2272,-0.4773,0.3385,0.7066,-0.156,27.944,1
0.8818,-0.2467,-12.584,-0.5126,23.787,0.5602,1
0.2958,0.3458,-0.3467,0.1072,-0.448,-24.85,1
0.8409,-0.7011,-0.8139,-0.2713,0.1995,-22.688,1
0.1954,-0.8022,-0.0578,0.6129,0.2066,30.219,1
0.7187,0.0136,-0.9904,-0.6736,20.943,0.7976,1
0.4411,0.3436,-0.4581,-0.245,-0.1015,-24.018,1
14.926,-0.8831,-12.068,-0.161,-0.5156,-27.843,1
-0.1236,-0.7725,0.3115,0.6495,0.1577,34.701,1
0.825,0.1286,-0.9183,-0.7628,24.941,12.278,1
0.3575,0.3222,-0.4534,-0.114,0.0245,-29.655,1
0.996,-0.7635,-0.7299,-0.0211,0.641,-22.081,1
-0.036,-0.5996,0.1867,0.1964,-0.0495,30.051,1
0.8227,0.1058,-0.7688,-10.408,25.31,0.8353,1
0.725,0.2033,-0.5436,0.4514,-0.9429,-30.576,1
0.4189,-0.5811,-0.8332,0.3239,0.6627,-15.827,1
0.3078,-0.7864,-0.0582,10.498,0.0981,29.29,1
0.6865,-0.0344,-10.222,-10.467,15.183,0.8585,1
0.2344,0.404,-0.3351,-0.0888,-0.043,-29.994,1
10.051,-0.7915,-0.8842,0.6364,0.5478,-14.717,1
-0.0153,-0.7941,-0.0502,0.9453,0.4671,38.189,1
0.8593,-0.0011,-0.8257,-0.9818,0.993,0.673,1
0.5235,0.2706,-0.5288,-0.0645,-0.3272,-30.324,1
0.6096,-0.7378,-0.6546,11.751,-0.199,-0.9114,1
0.2228,-0.8563,-0.2369,0.397,0.1743,40.348,1
0.4871,0.491,-0.5274,-10.687,14.57,0.7127,1
0.5752,0.2467,-0.5246,0.6559,-0.4504,-30.155,1
0.6205,-0.5264,-0.5552,13.032,-0.3169,-0.275,1
11.503,-10.829,-10.457,0.0921,0.2859,33.574,1
0.7524,0.3406,-0.7679,-0.6472,12.43,0.4513,1
14.325,0.195,-10.351,0.6645,-0.3225,-29.625,1
0.2687,-0.4825,-0.1658,12.28,-0.17,-0.2248,1
18.092,-12.373,-13.639,0.2425,0.2729,42.289,1
0.4536,0.6093,-0.3507,-0.8276,12.38,0.5628,1
16.099,0.3979,-10.087,0.669,-0.499,-23.72,1
0.2439,-0.5345,-0.2737,17.692,-0.7913,-0.5095,1
21.177,-13.581,-16.129,-0.5311,-0.5232,36.94,1
0.2897,0.7229,-0.3055,-0.8877,11.983,0.3919,1
-0.1205,-0.4843,0.1309,10.226,-0.1102,-0.1053,1
0.29,0.3195,-0.541,-0.1979,19.525,-0.2692,1
16.218,-0.5095,-0.9121,-0.0811,-15.776,-30.261,1
12.253,-0.6131,-0.7637,0.561,-0.4129,-19.431,1
0.1989,-0.5436,0.1202,0.1741,0.3648,15.392,1
12.515,-12.632,-0.9554,11.365,-0.9233,36.339,1
0.6873,0.0589,-0.7949,0.0849,0.7656,-0.1847,1
0.9965,-0.0649,-0.805,-0.0739,-0.9546,-41.353,1
0.8945,-0.6524,-0.5304,-14.717,-0.213,-13.84,1
0.4085,-0.6116,-0.0929,13.829,-0.5514,14.271,1
10.58,-0.8358,-15.357,0.4275,-0.031,30.083,1
0.2709,0.5827,-0.3688,0.1545,11.739,-14.048,1
20.49,-10.897,-10.103,-12.718,0.1663,-30.93,1
0.7498,-0.3857,-0.1534,10.08,-0.9102,0.6322,1
0.494,-0.5887,-0.2956,15.268,0.7048,31.161,1
0.8492,-0.6111,-10.409,-0.4311,12.991,11.839,1
0.3166,0.319,-0.3676,-0.8444,0.268,-21.773,1
14.85,-13.024,-11.302,-15.065,-0.5458,-30.007,1
0.165,-0.4024,0.1097,11.329,0.0097,14.722,1
12.861,-0.9694,-14.496,0.3916,-0.1519,26.124,1
0.4794,0.321,-0.5252,-0.4754,11.398,-0.4765,1
16.114,-0.0014,-11.069,0.4933,-0.2356,-39.157,1
0.4349,-0.2704,-0.46,0.5305,0.2748,-0.4741,1
0.5287,-0.5633,-0.0709,0.2768,0.4904,36.807,1
0.7259,0.1032,-13.177,0.0958,31.979,14.896,1
0.623,0.1616,-0.4433,0.0796,-10.506,-39.993,1
11.893,-0.9355,-13.453,-19.905,-11.125,-18.51,1
0.0816,-0.3624,0.0796,11.926,17.052,11.981,1
12.365,-12.764,-0.8404,0.8115,-0.1492,41.801,1
0.893,-0.0386,-0.8941,-0.0603,0.9519,0.5432,1
0.1833,0.2725,-0.2155,-0.0259,-0.5466,-30.761,1
16.901,-0.8324,-11.001,-12.968,-0.7157,-21.922,1
0.0642,-0.6212,0.1252,13.741,-0.4055,22.178,1
0.7945,-0.6166,-12.643,0.1754,0.4544,21.64,1
0.4815,0.6724,-0.5733,-0.9557,10.58,-17.749,1
22.329,-0.5275,-14.523,0.0271,-0.6784,-45.849,1
0.3763,-0.4902,-0.0414,0.9542,0.1607,11.925,1
16.268,-15.903,-11.494,12.137,-0.4623,48.672,1
0.6085,0.8428,-0.5794,0.4882,13.052,-0.8417,1
0.9019,-0.1832,-0.6985,-0.5912,-0.7452,-31.606,1
0.7501,-0.6383,-0.5724,0.2134,-0.03,-11.398,1
0.1813,-0.8512,0.0048,14.591,0.694,34.912,1
10.78,-0.2869,-11.629,-0.4496,0.5163,19.34,1
0.4319,0.2189,-0.4019,-0.8749,0.007,-32.358,1
12.908,-0.5842,-0.9617,-10.742,-0.5893,-33.856,1
0.1261,-0.6901,0.1628,18.837,-0.2805,27.774,1
20.116,-16.644,-17.493,-0.4151,0.2691,36.04,1
0.3185,0.661,-0.3352,0.0595,0.4509,-23.033,1
19.463,-0.8971,-10.831,-11.373,-0.8128,-40.218,1
-0.0029,-0.4628,0.1427,12.718,0.6582,0.6942,1
0.4831,-0.8305,-0.2115,14.015,0.644,47.773,1
0.8871,-0.4753,-0.9484,0.2678,0.8674,12.192,1
0.3245,0.3424,-0.3381,-16.487,11.995,-25.827,1
18.157,-10.826,-12.908,-0.6459,-0.7444,-36.298,1
0.1505,-0.5379,0.0788,11.94,-0.2883,19.965,1
-0.3221,-0.6156,0.4113,0.7413,-0.6356,0.6976,1
10.381,-0.5614,-14.09,-0.0459,0.9331,16.948,1
0.0073,0.8938,-0.3253,-0.7058,10.232,-0.4963,1
18.122,-0.8583,-18.167,-0.7674,-28.351,-40.282,1
0.1156,-0.3538,-0.0346,0.5886,-0.6416,-0.5512,1
0.5135,-0.8088,-15.307,13.338,0.7014,23.726,1
-0.04,0.5102,-0.6254,0.1093,0.8812,0.4572,1
0.9884,-0.266,-17.988,-27.407,13.517,-20.73,1
0.1261,-0.3452,-0.2562,14.794,0.6421,-0.698,1
14.692,-12.557,-0.886,0.6199,10.709,60.357,1
0.5551,0.8038,-0.1823,-11.428,0.5378,14.405,1
26.716,-0.528,-14.048,14.651,-12.73,-30.908,1
0.3715,-0.6212,-0.0225,0.2164,17.735,-0.5918,1
0.8956,-0.9976,-0.4398,0.9067,-0.1412,46.542,1
0.8874,0.276,-0.6626,-0.8086,-0.0901,0.481,1
0.5821,0.2626,-0.4151,0.5579,-0.4447,-25.411,1
0.5207,-0.4294,-0.3328,11.438,-0.8105,-16.931,1
0.8438,-11.061,-0.555,0.9394,14.377,46.654,1
0.794,0.1834,-0.7366,-0.6842,12.902,0.4119,1
0.4882,0.2732,-0.3099,0.301,-0.0376,-26.023,1
0.7456,-0.4587,-0.553,0.703,-16.892,-20.654,1
0.2318,-0.8308,0.0854,0.872,0.848,35.692,1
0.723,-0.128,-11.983,-10.44,27.021,0.9554,1
0.3467,0.3628,-0.2425,-0.2817,0.0016,-32.604,1
14.131,-0.7392,-10.125,0.0638,0.0884,-27.668,1
-0.1013,-0.6277,0.3238,0.7419,0.6523,26.241,1
0.8139,-0.3003,-10.954,-15.454,43.842,10.745,1
0.1923,0.4969,-0.2181,-0.4677,0.7928,-23.585,1
14.409,-10.106,-10.882,0.3251,-0.2325,-32.532,1
-0.1769,-0.4853,0.213,0.8943,0.1078,22.666,1
0.9304,-0.5388,-12.712,-15.257,37.594,0.5819,1
0.0622,0.5974,-0.4713,-19.193,0.1528,-34.001,1
18.732,0.564,-12.128,-12.284,0.0257,-35.503,1
0.4735,-0.0758,-0.209,0.2278,0.738,-23.508,1
0.8899,10.501,-10.31,-0.3533,-0.3523,28.933,1
-0.1963,0.7322,0.1438,0.018,16.339,42.807,1
26.699,0.053,-0.6806,27.588,-26.037,-31.79,1
0.0247,-0.6403,0.2049,-0.1619,0.5805,11.782,1
22.504,-0.6616,-12.506,-11.183,-0.8545,29.637,1
0.1812,0.8057,0.0074,-0.684,28.1,0.5556,1
17.539,0.5733,-0.8396,13.236,0.2116,-34.104,1
0.6351,-0.5783,-0.2045,14.814,0.0456,0.6693,1
23.713,-10.413,-17.275,0.2085,-29.958,43.972,1
0.2287,0.6693,-0.1722,-10.55,13.714,0.411,1
0.9403,0.3757,-0.6426,13.98,-0.0851,-21.296,1
0.59,-0.275,-0.4319,0.5714,12.38,0.1899,1
